Experiment	bias spectroscopy	
Date	01.12.2015 06:42:26	
User		
X (m)	281.754E-9	
Y (m)	-138.603E-9	
Z (m)	-4.07703E-9	
Z offset (m)	0E+0	
Settling time (s)	30E-3	
Integration time (s)	200E-3	
Z-Ctrl hold	TRUE	
Final Z (m)	-4.07703E-9	
Filter type	None	
Order		
Cutoff frq		
Current (A)	15.556E-12	
Z (m)	-4.07703E-9	
Phase (deg)	-249.29E-3	
Amplitude (m)	40.0478E-12	
Frequency Shift (Hz)	-1.12816E+0	
Excitation (V)	27.1678E-3	

[DATA]
Bias calc (V)	Current (A)	Applied Voltage measured (V)	Bias (V)	Phase (deg)	Amplitude (m)	Frequency Shift (Hz)	Excitation (V)
1.00000E+0	15.0510E-12	999.325E-3	1.00000E+0	-26.2304E-3	40.0471E-12	-1.06841E+0	26.1003E-3
988.189E-3	15.0072E-12	987.526E-3	988.189E-3	20.6009E-3	39.9848E-12	-1.06640E+0	26.8053E-3
976.378E-3	14.8012E-12	975.769E-3	976.378E-3	-26.3447E-3	39.9831E-12	-1.07367E+0	24.6804E-3
964.567E-3	14.7563E-12	963.895E-3	964.567E-3	36.1939E-3	39.9928E-12	-1.06695E+0	23.5870E-3
952.756E-3	14.4842E-12	952.146E-3	952.756E-3	100.784E-3	39.9697E-12	-1.03743E+0	27.2039E-3
940.945E-3	14.5640E-12	940.306E-3	940.945E-3	35.8353E-3	39.9803E-12	-1.04920E+0	24.6731E-3
929.134E-3	14.4838E-12	928.480E-3	929.134E-3	52.9948E-3	40.0363E-12	-1.04921E+0	26.7091E-3
917.323E-3	14.0893E-12	916.730E-3	917.323E-3	3.34738E-3	39.9406E-12	-1.05584E+0	29.7519E-3
905.512E-3	14.2219E-12	904.879E-3	905.512E-3	23.5616E-3	40.0969E-12	-1.03818E+0	24.5932E-3
893.701E-3	13.8809E-12	893.118E-3	893.701E-3	122.510E-3	39.9091E-12	-988.819E-3	26.3792E-3
881.890E-3	13.8275E-12	881.278E-3	881.890E-3	134.340E-3	40.0264E-12	-965.697E-3	28.0567E-3
870.079E-3	13.8521E-12	869.477E-3	870.079E-3	-230.727E-3	40.0724E-12	-1.07436E+0	25.9165E-3
858.268E-3	13.4430E-12	857.651E-3	858.268E-3	71.7140E-3	39.9325E-12	-995.086E-3	26.1261E-3
846.457E-3	13.7182E-12	845.825E-3	846.457E-3	-24.0548E-3	40.0530E-12	-1.00758E+0	25.1169E-3
834.646E-3	13.2503E-12	834.051E-3	834.646E-3	42.8709E-3	40.0154E-12	-1.01069E+0	24.9229E-3
822.835E-3	13.1396E-12	822.235E-3	822.835E-3	82.5086E-3	39.9992E-12	-975.687E-3	23.4697E-3
811.024E-3	12.8259E-12	810.407E-3	811.024E-3	-51.9701E-3	39.9805E-12	-1.00080E+0	24.0579E-3
799.213E-3	12.8358E-12	798.640E-3	799.213E-3	14.3915E-3	40.0204E-12	-975.006E-3	28.3288E-3
787.402E-3	12.9290E-12	786.805E-3	787.402E-3	49.3130E-3	40.0447E-12	-986.662E-3	25.1920E-3
775.591E-3	12.5084E-12	775.022E-3	775.591E-3	206.852E-3	39.9333E-12	-902.674E-3	27.6960E-3
763.780E-3	12.5001E-12	763.195E-3	763.780E-3	13.8915E-3	40.0603E-12	-967.900E-3	24.7387E-3
751.969E-3	12.3442E-12	751.421E-3	751.969E-3	-27.4162E-3	39.9361E-12	-968.416E-3	30.8130E-3
740.157E-3	12.1971E-12	739.615E-3	740.157E-3	-73.3889E-3	40.0156E-12	-994.517E-3	26.6472E-3
728.346E-3	11.8725E-12	727.780E-3	728.346E-3	-38.2033E-3	39.9848E-12	-986.314E-3	25.0968E-3
716.535E-3	11.9648E-12	715.990E-3	716.535E-3	9.97080E-3	40.0435E-12	-985.366E-3	25.7514E-3
704.724E-3	11.7626E-12	704.300E-3	704.724E-3	83.0916E-3	39.9875E-12	-929.624E-3	27.0174E-3
692.913E-3	11.5546E-12	692.508E-3	692.913E-3	34.0327E-3	40.0571E-12	-954.967E-3	26.4831E-3
681.102E-3	11.4187E-12	680.727E-3	681.102E-3	10.8571E-3	39.9915E-12	-943.327E-3	26.7441E-3
669.291E-3	11.3894E-12	668.907E-3	669.291E-3	-37.3541E-3	40.0036E-12	-978.936E-3	23.7621E-3
657.480E-3	11.1268E-12	657.063E-3	657.480E-3	-37.8915E-3	39.9874E-12	-972.392E-3	26.8818E-3
645.669E-3	11.0335E-12	645.262E-3	645.669E-3	-1.71588E-3	40.0350E-12	-980.582E-3	25.3059E-3
633.858E-3	10.8383E-12	633.460E-3	633.858E-3	56.1771E-3	39.9677E-12	-940.220E-3	26.2470E-3
622.047E-3	10.5605E-12	621.659E-3	622.047E-3	44.6081E-3	40.0044E-12	-922.368E-3	25.5998E-3
610.236E-3	10.5453E-12	609.878E-3	610.236E-3	62.5182E-3	40.0368E-12	-895.322E-3	25.0139E-3
598.425E-3	10.2617E-12	598.074E-3	598.425E-3	-67.9142E-3	39.9947E-12	-961.807E-3	26.0075E-3
586.614E-3	10.2901E-12	586.263E-3	586.614E-3	106.551E-3	40.0515E-12	-911.516E-3	26.5629E-3
574.803E-3	9.96345E-12	574.444E-3	574.803E-3	21.8298E-3	39.9711E-12	-921.330E-3	28.4109E-3
562.992E-3	10.0862E-12	562.666E-3	562.992E-3	20.6317E-3	40.0214E-12	-917.832E-3	24.6674E-3
551.181E-3	9.85331E-12	550.850E-3	551.181E-3	-55.1022E-3	40.0046E-12	-941.506E-3	25.9368E-3
539.370E-3	9.55512E-12	538.996E-3	539.370E-3	-14.6836E-3	39.9890E-12	-925.824E-3	26.4587E-3
527.559E-3	9.34291E-12	527.210E-3	527.559E-3	-92.2325E-3	40.0331E-12	-977.137E-3	25.4962E-3
515.748E-3	9.11223E-12	515.376E-3	515.748E-3	141.856E-3	39.9968E-12	-885.979E-3	26.6863E-3
503.937E-3	8.89791E-12	503.587E-3	503.937E-3	33.4505E-3	40.0134E-12	-915.342E-3	25.9656E-3
492.126E-3	8.77356E-12	491.764E-3	492.126E-3	42.3048E-3	39.9549E-12	-912.396E-3	26.6926E-3
480.315E-3	8.61168E-12	479.957E-3	480.315E-3	-49.2550E-3	40.0040E-12	-943.726E-3	24.6214E-3
468.504E-3	8.40767E-12	468.161E-3	468.504E-3	-136.300E-3	39.9895E-12	-978.400E-3	27.6870E-3
456.693E-3	8.20274E-12	456.358E-3	456.693E-3	143.768E-3	39.9937E-12	-901.995E-3	25.1979E-3
444.882E-3	8.03788E-12	444.590E-3	444.882E-3	49.6984E-3	39.9639E-12	-886.196E-3	28.9532E-3
433.071E-3	7.84399E-12	432.752E-3	433.071E-3	-105.089E-3	39.9830E-12	-946.494E-3	27.2326E-3
421.260E-3	7.64155E-12	420.937E-3	421.260E-3	147.490E-3	40.0267E-12	-898.100E-3	24.1954E-3
409.449E-3	7.50074E-12	409.165E-3	409.449E-3	-129.125E-3	40.0197E-12	-973.444E-3	26.1023E-3
397.638E-3	7.34159E-12	397.319E-3	397.638E-3	-22.8558E-3	39.9844E-12	-934.200E-3	24.5901E-3
385.827E-3	7.17678E-12	385.558E-3	385.827E-3	-116.363E-3	40.0514E-12	-977.417E-3	23.8730E-3
374.016E-3	6.96867E-12	373.713E-3	374.016E-3	-21.6753E-3	40.0037E-12	-966.271E-3	25.6332E-3
362.205E-3	6.80258E-12	361.910E-3	362.205E-3	-43.9768E-3	40.0203E-12	-957.938E-3	25.0194E-3
350.394E-3	6.56092E-12	350.166E-3	350.394E-3	49.0954E-3	39.9450E-12	-936.556E-3	25.9807E-3
338.583E-3	6.39565E-12	338.304E-3	338.583E-3	30.5057E-3	39.9694E-12	-939.252E-3	26.6873E-3
326.772E-3	6.25939E-12	326.524E-3	326.772E-3	42.2621E-3	40.0054E-12	-951.931E-3	26.7481E-3
314.961E-3	6.09782E-12	314.693E-3	314.961E-3	78.8255E-3	40.0088E-12	-937.824E-3	26.3657E-3
303.150E-3	5.89988E-12	302.864E-3	303.150E-3	-56.8150E-3	39.9948E-12	-959.785E-3	26.7883E-3
291.339E-3	5.72824E-12	291.104E-3	291.339E-3	-207.756E-3	40.0146E-12	-1.03673E+0	24.1735E-3
279.528E-3	5.52483E-12	279.279E-3	279.528E-3	4.69899E-3	40.0251E-12	-994.346E-3	25.1097E-3
267.717E-3	5.33530E-12	267.462E-3	267.717E-3	41.5936E-3	39.9713E-12	-960.937E-3	23.7546E-3
255.906E-3	5.12911E-12	255.641E-3	255.906E-3	-66.1369E-3	39.9773E-12	-992.529E-3	24.8649E-3
244.094E-3	4.92320E-12	243.869E-3	244.094E-3	55.9580E-3	39.9826E-12	-956.764E-3	27.3498E-3
232.283E-3	4.88343E-12	232.017E-3	232.283E-3	-2.96932E-3	40.0335E-12	-931.604E-3	23.8871E-3
220.472E-3	4.56286E-12	220.177E-3	220.472E-3	-109.195E-3	39.8970E-12	-996.344E-3	29.8839E-3
208.661E-3	4.35723E-12	208.401E-3	208.661E-3	10.5729E-3	39.9616E-12	-981.820E-3	25.4681E-3
196.850E-3	4.15247E-12	196.571E-3	196.850E-3	84.3495E-3	40.0422E-12	-933.619E-3	23.4221E-3
185.039E-3	4.00445E-12	184.801E-3	185.039E-3	-43.8952E-3	40.0103E-12	-971.343E-3	27.5925E-3
173.228E-3	3.73091E-12	172.998E-3	173.228E-3	41.2039E-3	40.0181E-12	-947.775E-3	26.0454E-3
161.417E-3	3.52525E-12	161.171E-3	161.417E-3	-128.768E-3	39.9630E-12	-1.01544E+0	25.7561E-3
149.606E-3	3.29137E-12	149.349E-3	149.606E-3	38.9926E-3	39.9752E-12	-995.558E-3	25.9270E-3
137.795E-3	3.04886E-12	137.553E-3	137.795E-3	6.28110E-3	39.9950E-12	-1.00945E+0	23.2074E-3
125.984E-3	2.82164E-12	125.789E-3	125.984E-3	-31.4011E-3	40.0104E-12	-1.02423E+0	27.6550E-3
114.173E-3	2.52580E-12	113.950E-3	114.173E-3	-117.204E-3	40.0596E-12	-1.07151E+0	26.1351E-3
102.362E-3	2.25161E-12	102.144E-3	102.362E-3	-19.5906E-3	39.9371E-12	-1.05840E+0	26.6143E-3
90.5512E-3	2.03859E-12	90.3319E-3	90.5512E-3	153.795E-3	40.0619E-12	-990.750E-3	24.7495E-3
78.7402E-3	1.76223E-12	78.4964E-3	78.7402E-3	-114.703E-3	39.9796E-12	-1.06728E+0	26.5257E-3
66.9291E-3	1.52202E-12	66.6289E-3	66.9291E-3	6.39775E-3	40.0453E-12	-1.05451E+0	24.3188E-3
55.1181E-3	1.21997E-12	54.8610E-3	55.1181E-3	-105.119E-3	39.8976E-12	-1.10277E+0	27.7548E-3
43.3071E-3	964.314E-15	43.0374E-3	43.3071E-3	40.2981E-3	40.0221E-12	-1.06657E+0	24.7620E-3
31.4961E-3	656.516E-15	31.2080E-3	31.4961E-3	-15.6909E-3	39.9910E-12	-1.07104E+0	27.1028E-3
19.6850E-3	373.038E-15	19.4079E-3	19.6850E-3	85.7274E-3	39.9968E-12	-1.04035E+0	27.3968E-3
7.87402E-3	79.7246E-15	7.55022E-3	7.87402E-3	67.5158E-3	39.9348E-12	-1.04543E+0	28.6735E-3
-3.93701E-3	-227.875E-15	-4.33407E-3	-3.93701E-3	24.6485E-3	40.0088E-12	-1.05913E+0	28.4768E-3
-15.7480E-3	-545.182E-15	-16.1188E-3	-15.7480E-3	-169.559E-3	40.0420E-12	-1.13886E+0	27.5560E-3
-27.5591E-3	-834.270E-15	-27.9330E-3	-27.5591E-3	40.5313E-3	39.9918E-12	-1.10083E+0	25.9307E-3
-39.3701E-3	-1.15004E-12	-39.7015E-3	-39.3701E-3	-125.283E-3	39.9955E-12	-1.13628E+0	28.5542E-3
-51.1811E-3	-1.43737E-12	-51.5544E-3	-51.1811E-3	-15.1541E-3	40.0005E-12	-1.11245E+0	27.0107E-3
-62.9921E-3	-1.74167E-12	-63.3300E-3	-62.9921E-3	21.8141E-3	40.0071E-12	-1.11089E+0	26.8140E-3
-74.8032E-3	-1.94799E-12	-75.1640E-3	-74.8032E-3	-60.8444E-3	39.9842E-12	-1.14383E+0	27.7265E-3
-86.6142E-3	-2.09777E-12	-87.0208E-3	-86.6142E-3	-22.7935E-3	40.0688E-12	-1.14754E+0	25.3431E-3
-98.4252E-3	-2.19633E-12	-98.7989E-3	-98.4252E-3	-50.4201E-3	39.9550E-12	-1.16278E+0	24.4452E-3
-110.236E-3	-2.32286E-12	-110.655E-3	-110.236E-3	-46.1546E-3	40.0135E-12	-1.16842E+0	26.5841E-3
-122.047E-3	-2.44784E-12	-122.396E-3	-122.047E-3	-83.1378E-3	39.9928E-12	-1.20179E+0	26.9769E-3
-133.858E-3	-2.59590E-12	-134.255E-3	-133.858E-3	56.6458E-3	39.9809E-12	-1.17633E+0	25.7556E-3
-145.669E-3	-2.79960E-12	-146.046E-3	-145.669E-3	69.1655E-3	40.1102E-12	-1.15765E+0	24.1473E-3
-157.480E-3	-2.86744E-12	-157.821E-3	-157.480E-3	-76.8998E-3	39.9609E-12	-1.21998E+0	27.0024E-3
-169.291E-3	-3.04302E-12	-169.698E-3	-169.291E-3	31.5630E-3	39.9735E-12	-1.19400E+0	25.4546E-3
-181.102E-3	-3.18977E-12	-181.434E-3	-181.102E-3	100.189E-3	39.9866E-12	-1.16994E+0	26.2612E-3
-192.913E-3	-3.29549E-12	-193.241E-3	-192.913E-3	-95.8664E-3	40.0158E-12	-1.23569E+0	26.3597E-3
-204.724E-3	-3.44197E-12	-205.074E-3	-204.724E-3	24.5560E-3	40.0480E-12	-1.21057E+0	25.7780E-3
-216.535E-3	-3.57464E-12	-216.873E-3	-216.535E-3	40.7813E-3	39.9732E-12	-1.20606E+0	24.7673E-3
-228.346E-3	-3.65059E-12	-228.690E-3	-228.346E-3	-101.698E-3	39.9545E-12	-1.28707E+0	28.5508E-3
-240.157E-3	-3.80038E-12	-240.493E-3	-240.157E-3	-127.786E-3	40.0457E-12	-1.33014E+0	24.1284E-3
-251.969E-3	-3.93696E-12	-252.312E-3	-251.969E-3	193.491E-3	39.9695E-12	-1.23051E+0	27.3268E-3
-263.780E-3	-4.13628E-12	-264.081E-3	-263.780E-3	41.2520E-3	40.0073E-12	-1.25011E+0	27.3916E-3
-275.591E-3	-4.23555E-12	-275.885E-3	-275.591E-3	-95.1694E-3	39.9268E-12	-1.31999E+0	27.4119E-3
-287.402E-3	-4.42943E-12	-287.727E-3	-287.402E-3	46.5367E-3	39.9521E-12	-1.29390E+0	26.1604E-3
-299.213E-3	-4.55601E-12	-299.521E-3	-299.213E-3	-30.7944E-3	39.9971E-12	-1.29693E+0	24.9181E-3
-311.024E-3	-4.64824E-12	-311.354E-3	-311.024E-3	-69.3109E-3	39.9225E-12	-1.31563E+0	28.9145E-3
-322.835E-3	-4.82224E-12	-323.140E-3	-322.835E-3	55.2077E-3	40.0698E-12	-1.27733E+0	24.6641E-3
-334.646E-3	-4.95153E-12	-334.918E-3	-334.646E-3	-17.3293E-3	39.9741E-12	-1.31411E+0	26.0121E-3
-346.457E-3	-5.00308E-12	-346.731E-3	-346.457E-3	-181.473E-3	40.0056E-12	-1.38625E+0	24.6691E-3
-358.268E-3	-5.13022E-12	-358.569E-3	-358.268E-3	-97.2906E-3	39.9574E-12	-1.39452E+0	28.4878E-3
-370.079E-3	-5.30488E-12	-370.371E-3	-370.079E-3	98.3704E-3	39.9746E-12	-1.35654E+0	27.7279E-3
-381.890E-3	-5.43701E-12	-382.137E-3	-381.890E-3	-33.0670E-3	39.9987E-12	-1.40080E+0	28.5901E-3
-393.701E-3	-5.51689E-12	-394.010E-3	-393.701E-3	-66.7009E-3	40.0589E-12	-1.42106E+0	22.8637E-3
-405.512E-3	-5.65449E-12	-405.818E-3	-405.512E-3	87.5550E-3	39.9955E-12	-1.37131E+0	26.2531E-3
-417.323E-3	-5.82740E-12	-417.614E-3	-417.323E-3	-76.9522E-3	39.9655E-12	-1.42940E+0	29.6992E-3
-429.134E-3	-5.92147E-12	-429.426E-3	-429.134E-3	-3.05415E-3	40.0598E-12	-1.43799E+0	26.4313E-3
-440.945E-3	-6.14099E-12	-441.227E-3	-440.945E-3	-26.7417E-3	39.9991E-12	-1.44689E+0	24.8077E-3
-452.756E-3	-6.22596E-12	-453.029E-3	-452.756E-3	29.7893E-3	39.9870E-12	-1.42506E+0	26.6531E-3
-464.567E-3	-6.59118E-12	-464.850E-3	-464.567E-3	-46.1131E-3	39.9806E-12	-1.47287E+0	26.6985E-3
-476.378E-3	-6.90413E-12	-476.674E-3	-476.378E-3	-83.5164E-3	40.0073E-12	-1.48856E+0	27.7002E-3
-488.189E-3	-7.03381E-12	-488.403E-3	-488.189E-3	-89.4109E-3	39.9352E-12	-1.52198E+0	32.1992E-3
-500.000E-3	-7.38527E-12	-500.260E-3	-500.000E-3	-52.2145E-3	40.0595E-12	-1.52428E+0	26.3768E-3
