Experiment	bias spectroscopy	
Date	01.12.2015 01:07:28	
User		
X (m)	280.448E-9	
Y (m)	-139.031E-9	
Z (m)	-4.07703E-9	
Z offset (m)	0E+0	
Settling time (s)	30E-3	
Integration time (s)	200E-3	
Z-Ctrl hold	TRUE	
Final Z (m)	-4.07703E-9	
Filter type	None	
Order		
Cutoff frq		
Current (A)	20.9857E-12	
Z (m)	-4.07703E-9	
Phase (deg)	-182.19E-3	
Amplitude (m)	39.7468E-12	
Frequency Shift (Hz)	-1.32633E+0	
Excitation (V)	34.2495E-3	

[DATA]
Bias calc (V)	Current (A)	Applied Voltage measured (V)	Bias (V)	Phase (deg)	Amplitude (m)	Frequency Shift (Hz)	Excitation (V)
1.00000E+0	20.8544E-12	999.344E-3	1.00000E+0	12.2176E-3	39.9801E-12	-1.27069E+0	28.4737E-3
988.189E-3	20.7342E-12	987.541E-3	988.189E-3	106.687E-3	40.0374E-12	-1.23747E+0	25.9651E-3
976.378E-3	20.3780E-12	975.775E-3	976.378E-3	-167.637E-3	39.9827E-12	-1.32889E+0	26.8251E-3
964.567E-3	20.4281E-12	963.909E-3	964.567E-3	12.1070E-3	40.0340E-12	-1.28243E+0	26.0351E-3
952.756E-3	20.1889E-12	952.152E-3	952.756E-3	-23.9859E-3	40.0062E-12	-1.30055E+0	26.3168E-3
940.945E-3	20.3180E-12	940.310E-3	940.945E-3	95.9334E-3	39.9851E-12	-1.24812E+0	26.4979E-3
929.134E-3	19.8187E-12	928.483E-3	929.134E-3	7.85455E-3	39.9759E-12	-1.25021E+0	28.2449E-3
917.323E-3	19.8488E-12	916.743E-3	917.323E-3	77.7712E-3	40.0422E-12	-1.21791E+0	24.1998E-3
905.512E-3	19.6842E-12	904.884E-3	905.512E-3	-40.4433E-3	40.0175E-12	-1.25528E+0	23.9487E-3
893.701E-3	19.2957E-12	893.122E-3	893.701E-3	177.201E-3	39.9481E-12	-1.15815E+0	28.6601E-3
881.890E-3	19.3397E-12	881.285E-3	881.890E-3	-29.8644E-3	39.9955E-12	-1.20416E+0	25.1028E-3
870.079E-3	18.7978E-12	869.488E-3	870.079E-3	-76.3536E-3	40.0180E-12	-1.22901E+0	22.5446E-3
858.268E-3	18.6016E-12	857.654E-3	858.268E-3	130.365E-3	39.9517E-12	-1.16501E+0	25.6654E-3
846.457E-3	18.7993E-12	845.828E-3	846.457E-3	24.5657E-3	40.0553E-12	-1.17574E+0	26.3680E-3
834.646E-3	18.4168E-12	834.045E-3	834.646E-3	24.7797E-3	40.0166E-12	-1.16995E+0	26.3292E-3
822.835E-3	18.0084E-12	822.225E-3	822.835E-3	-52.6749E-3	39.9560E-12	-1.18848E+0	25.8090E-3
811.024E-3	18.0632E-12	810.402E-3	811.024E-3	231.560E-3	39.9965E-12	-1.09386E+0	28.9262E-3
799.213E-3	18.0131E-12	798.638E-3	799.213E-3	-190.442E-3	39.9977E-12	-1.21472E+0	24.7910E-3
787.402E-3	17.6931E-12	786.804E-3	787.402E-3	-123.306E-6	39.9652E-12	-1.16049E+0	26.3103E-3
775.591E-3	17.5020E-12	775.020E-3	775.591E-3	35.1245E-3	40.0052E-12	-1.13553E+0	23.9151E-3
763.780E-3	17.1922E-12	763.192E-3	763.780E-3	-84.6081E-3	39.9876E-12	-1.18536E+0	23.3378E-3
751.969E-3	17.0423E-12	751.419E-3	751.969E-3	-22.6491E-3	39.9442E-12	-1.18582E+0	28.5271E-3
740.157E-3	16.6552E-12	739.623E-3	740.157E-3	234.320E-3	39.9343E-12	-1.06051E+0	27.9348E-3
728.346E-3	16.7719E-12	727.773E-3	728.346E-3	-85.6515E-3	40.0126E-12	-1.13870E+0	26.5800E-3
716.535E-3	16.3366E-12	715.993E-3	716.535E-3	-15.7134E-3	39.9383E-12	-1.12754E+0	25.4355E-3
704.724E-3	16.3355E-12	704.302E-3	704.724E-3	-1.56544E-3	40.0451E-12	-1.12902E+0	27.8255E-3
692.913E-3	15.8905E-12	692.505E-3	692.913E-3	128.388E-3	39.9743E-12	-1.10318E+0	25.9456E-3
681.102E-3	15.7991E-12	680.728E-3	681.102E-3	125.066E-3	40.1289E-12	-1.07851E+0	20.2382E-3
669.291E-3	15.5257E-12	668.917E-3	669.291E-3	98.3703E-3	39.9626E-12	-1.08768E+0	26.5684E-3
657.480E-3	15.3640E-12	657.087E-3	657.480E-3	39.9200E-3	40.0470E-12	-1.09694E+0	24.2064E-3
645.669E-3	15.2779E-12	645.276E-3	645.669E-3	-44.7930E-3	40.0151E-12	-1.08805E+0	25.7458E-3
633.858E-3	15.0614E-12	633.466E-3	633.858E-3	14.3917E-3	39.9990E-12	-1.08381E+0	26.2048E-3
622.047E-3	14.7419E-12	621.672E-3	622.047E-3	30.2065E-3	39.9965E-12	-1.08554E+0	25.6818E-3
610.236E-3	14.6448E-12	609.902E-3	610.236E-3	-132.704E-3	40.0339E-12	-1.13553E+0	24.5013E-3
598.425E-3	14.2584E-12	598.091E-3	598.425E-3	68.2285E-3	39.8992E-12	-1.06645E+0	29.7828E-3
586.614E-3	14.1190E-12	586.275E-3	586.614E-3	46.0539E-3	40.0534E-12	-1.07138E+0	25.9185E-3
574.803E-3	14.0576E-12	574.453E-3	574.803E-3	-103.717E-3	40.0626E-12	-1.12781E+0	23.1603E-3
562.992E-3	13.7863E-12	562.683E-3	562.992E-3	126.812E-3	39.9703E-12	-1.05704E+0	25.6192E-3
551.181E-3	13.3736E-12	550.862E-3	551.181E-3	21.6307E-3	39.9933E-12	-1.08024E+0	24.5750E-3
539.370E-3	13.2975E-12	539.003E-3	539.370E-3	-23.4538E-3	39.9797E-12	-1.10979E+0	24.5307E-3
527.559E-3	12.9918E-12	527.215E-3	527.559E-3	46.9695E-3	39.9825E-12	-1.07052E+0	24.8093E-3
515.748E-3	12.7267E-12	515.376E-3	515.748E-3	-57.4570E-3	40.0158E-12	-1.08553E+0	26.3521E-3
503.937E-3	12.6155E-12	503.596E-3	503.937E-3	-127.950E-3	40.0361E-12	-1.12464E+0	24.0729E-3
492.126E-3	12.2543E-12	491.765E-3	492.126E-3	83.9713E-3	39.9849E-12	-1.05502E+0	22.6210E-3
480.315E-3	12.2038E-12	479.952E-3	480.315E-3	53.6336E-3	40.0074E-12	-1.04125E+0	23.2773E-3
468.504E-3	11.8004E-12	468.161E-3	468.504E-3	-125.313E-3	40.0428E-12	-1.11520E+0	24.9842E-3
456.693E-3	11.4332E-12	456.347E-3	456.693E-3	-17.7575E-3	40.0266E-12	-1.10241E+0	24.0946E-3
444.882E-3	11.3250E-12	444.585E-3	444.882E-3	12.6248E-3	40.0020E-12	-1.07566E+0	27.3542E-3
433.071E-3	11.0186E-12	432.749E-3	433.071E-3	-52.7941E-3	40.0544E-12	-1.10109E+0	26.2244E-3
421.260E-3	10.6750E-12	420.940E-3	421.260E-3	36.7132E-3	39.9538E-12	-1.08984E+0	26.7284E-3
409.449E-3	10.4059E-12	409.155E-3	409.449E-3	-45.9374E-3	40.0565E-12	-1.10786E+0	25.4777E-3
397.638E-3	10.2308E-12	397.297E-3	397.638E-3	20.6985E-3	40.0079E-12	-1.09281E+0	23.1700E-3
385.827E-3	9.87812E-12	385.545E-3	385.827E-3	22.3078E-3	39.8793E-12	-1.10435E+0	29.5905E-3
374.016E-3	9.63692E-12	373.700E-3	374.016E-3	30.8156E-3	40.0603E-12	-1.07114E+0	27.1709E-3
362.205E-3	9.37518E-12	361.903E-3	362.205E-3	-66.3209E-3	40.0414E-12	-1.10655E+0	25.6508E-3
350.394E-3	9.05143E-12	350.152E-3	350.394E-3	-55.4832E-3	39.9777E-12	-1.11463E+0	27.7498E-3
338.583E-3	8.86393E-12	338.297E-3	338.583E-3	129.490E-3	40.0372E-12	-1.02705E+0	24.5960E-3
326.772E-3	8.49591E-12	326.517E-3	326.772E-3	37.0322E-3	39.9396E-12	-1.04871E+0	26.5209E-3
314.961E-3	8.34336E-12	314.677E-3	314.961E-3	-61.5206E-3	40.0350E-12	-1.09041E+0	23.6951E-3
303.150E-3	8.05978E-12	302.855E-3	303.150E-3	95.9295E-3	40.0571E-12	-1.06697E+0	22.6638E-3
291.339E-3	7.66976E-12	291.105E-3	291.339E-3	-103.195E-3	39.9030E-12	-1.13332E+0	29.7206E-3
279.528E-3	7.40326E-12	279.277E-3	279.528E-3	-124.435E-3	40.0174E-12	-1.15444E+0	26.2572E-3
267.717E-3	7.04947E-12	267.466E-3	267.717E-3	26.3443E-3	39.9977E-12	-1.10500E+0	27.3814E-3
255.906E-3	6.82598E-12	255.644E-3	255.906E-3	45.7335E-3	40.0391E-12	-1.08036E+0	22.7516E-3
244.094E-3	6.42343E-12	243.864E-3	244.094E-3	-45.0192E-3	39.9689E-12	-1.11314E+0	27.3385E-3
232.283E-3	6.24832E-12	232.015E-3	232.283E-3	-34.4166E-3	39.9167E-12	-1.12033E+0	29.3234E-3
220.472E-3	5.90011E-12	220.179E-3	220.472E-3	-77.2581E-3	40.0630E-12	-1.15930E+0	28.0429E-3
208.661E-3	5.53492E-12	208.391E-3	208.661E-3	-108.058E-3	39.9588E-12	-1.19627E+0	28.6867E-3
196.850E-3	5.19918E-12	196.557E-3	196.850E-3	-9.66698E-3	40.0048E-12	-1.16639E+0	27.4397E-3
185.039E-3	5.00635E-12	184.796E-3	185.039E-3	106.346E-3	39.9823E-12	-1.10584E+0	28.7904E-3
173.228E-3	4.66994E-12	172.984E-3	173.228E-3	-11.7829E-3	40.0118E-12	-1.13506E+0	24.2701E-3
161.417E-3	4.32162E-12	161.153E-3	161.417E-3	-66.1470E-3	40.0086E-12	-1.15102E+0	25.9608E-3
149.606E-3	3.96674E-12	149.335E-3	149.606E-3	199.453E-3	39.9604E-12	-1.05538E+0	25.5256E-3
137.795E-3	3.63948E-12	137.541E-3	137.795E-3	-105.397E-3	39.9860E-12	-1.15946E+0	27.0719E-3
125.984E-3	3.31310E-12	125.765E-3	125.984E-3	-178.531E-3	39.9732E-12	-1.20775E+0	25.9935E-3
114.173E-3	3.04222E-12	113.933E-3	114.173E-3	97.9825E-3	40.1204E-12	-1.13072E+0	25.4702E-3
102.362E-3	2.69274E-12	102.130E-3	102.362E-3	48.5236E-3	40.0257E-12	-1.12818E+0	22.5377E-3
90.5512E-3	2.39379E-12	90.3195E-3	90.5512E-3	-37.4445E-3	40.0664E-12	-1.16724E+0	22.7836E-3
78.7402E-3	2.04401E-12	78.4868E-3	78.7402E-3	85.8417E-3	39.9153E-12	-1.13428E+0	26.6797E-3
66.9291E-3	1.71441E-12	66.6193E-3	66.9291E-3	90.3158E-3	39.9432E-12	-1.11386E+0	25.3294E-3
55.1181E-3	1.36366E-12	54.8445E-3	55.1181E-3	-184.700E-3	39.9824E-12	-1.21645E+0	29.0230E-3
43.3071E-3	1.02489E-12	43.0237E-3	43.3071E-3	44.1363E-3	39.9536E-12	-1.17550E+0	28.1287E-3
31.4961E-3	728.041E-15	31.1969E-3	31.4961E-3	-40.7798E-3	40.0487E-12	-1.22774E+0	24.4672E-3
19.6850E-3	388.844E-15	19.3976E-3	19.6850E-3	160.167E-3	39.8296E-12	-1.15333E+0	29.8352E-3
7.87402E-3	80.0368E-15	7.54709E-3	7.87402E-3	-89.5364E-3	40.0564E-12	-1.21031E+0	27.3821E-3
-3.93701E-3	-228.561E-15	-4.35247E-3	-3.93701E-3	1.51294E-3	40.0009E-12	-1.21178E+0	25.1217E-3
-15.7480E-3	-556.073E-15	-16.1316E-3	-15.7480E-3	84.8567E-3	40.0033E-12	-1.18238E+0	26.2641E-3
-27.5591E-3	-890.032E-15	-27.9425E-3	-27.5591E-3	-160.259E-3	39.9699E-12	-1.25804E+0	22.8244E-3
-39.3701E-3	-1.21359E-12	-39.7113E-3	-39.3701E-3	-102.895E-3	40.0286E-12	-1.25129E+0	25.9189E-3
-51.1811E-3	-1.53250E-12	-51.5590E-3	-51.1811E-3	-42.8725E-3	40.0469E-12	-1.23574E+0	26.6912E-3
-62.9921E-3	-1.87477E-12	-63.3316E-3	-62.9921E-3	-73.8122E-3	39.9448E-12	-1.26486E+0	26.2336E-3
-74.8032E-3	-2.12623E-12	-75.1795E-3	-74.8032E-3	57.7000E-3	39.9249E-12	-1.23321E+0	29.9678E-3
-86.6142E-3	-2.31567E-12	-87.0331E-3	-86.6142E-3	-57.0916E-3	40.1029E-12	-1.26600E+0	24.0502E-3
-98.4252E-3	-2.42290E-12	-98.8057E-3	-98.4252E-3	86.4761E-3	39.9880E-12	-1.23780E+0	27.6648E-3
-110.236E-3	-2.59253E-12	-110.657E-3	-110.236E-3	147.532E-3	39.9710E-12	-1.20553E+0	29.5785E-3
-122.047E-3	-2.72466E-12	-122.399E-3	-122.047E-3	-61.5564E-3	39.9900E-12	-1.27995E+0	26.9579E-3
-133.858E-3	-2.84415E-12	-134.255E-3	-133.858E-3	38.3911E-3	39.9842E-12	-1.26685E+0	25.8588E-3
-145.669E-3	-2.99562E-12	-146.057E-3	-145.669E-3	-95.1471E-3	40.0785E-12	-1.31079E+0	24.4219E-3
-157.480E-3	-3.13521E-12	-157.827E-3	-157.480E-3	53.1245E-3	39.9647E-12	-1.27363E+0	28.6890E-3
-169.291E-3	-3.29788E-12	-169.697E-3	-169.291E-3	-67.0456E-3	40.0206E-12	-1.30322E+0	25.4230E-3
-181.102E-3	-3.41240E-12	-181.434E-3	-181.102E-3	-174.610E-3	39.9606E-12	-1.35842E+0	28.1142E-3
-192.913E-3	-3.55409E-12	-193.245E-3	-192.913E-3	-11.2639E-3	40.0977E-12	-1.33939E+0	22.6931E-3
-204.724E-3	-3.68846E-12	-205.075E-3	-204.724E-3	-14.4898E-3	39.9995E-12	-1.34538E+0	24.3261E-3
-216.535E-3	-3.79897E-12	-216.869E-3	-216.535E-3	10.0580E-3	39.9976E-12	-1.33693E+0	28.0213E-3
-228.346E-3	-3.98480E-12	-228.687E-3	-228.346E-3	-102.240E-3	40.0112E-12	-1.38051E+0	24.3775E-3
-240.157E-3	-4.16231E-12	-240.494E-3	-240.157E-3	-85.0504E-3	39.9834E-12	-1.40253E+0	28.1145E-3
-251.969E-3	-4.35386E-12	-252.312E-3	-251.969E-3	132.162E-3	40.0249E-12	-1.32636E+0	26.0506E-3
-263.780E-3	-4.59130E-12	-264.074E-3	-263.780E-3	-33.3175E-3	40.0568E-12	-1.38139E+0	23.3682E-3
-275.591E-3	-4.67959E-12	-275.885E-3	-275.591E-3	24.8193E-3	39.9859E-12	-1.35853E+0	27.1935E-3
-287.402E-3	-4.86427E-12	-287.735E-3	-287.402E-3	-64.2708E-3	39.9926E-12	-1.38405E+0	27.8145E-3
-299.213E-3	-5.01637E-12	-299.520E-3	-299.213E-3	-27.4518E-3	39.9239E-12	-1.40058E+0	28.5185E-3
-311.024E-3	-5.13170E-12	-311.350E-3	-311.024E-3	24.1374E-3	39.9920E-12	-1.39460E+0	24.5710E-3
-322.835E-3	-5.31985E-12	-323.148E-3	-322.835E-3	-42.4472E-3	40.0499E-12	-1.41068E+0	23.9004E-3
-334.646E-3	-5.41071E-12	-334.918E-3	-334.646E-3	399.315E-6	39.9645E-12	-1.44586E+0	27.1027E-3
-346.457E-3	-5.58867E-12	-346.739E-3	-346.457E-3	-17.7036E-3	39.9457E-12	-1.43652E+0	28.2495E-3
-358.268E-3	-5.74801E-12	-358.581E-3	-358.268E-3	31.8849E-3	40.0696E-12	-1.42718E+0	24.8222E-3
-370.079E-3	-5.85227E-12	-370.385E-3	-370.079E-3	-125.257E-3	40.0829E-12	-1.49777E+0	25.7534E-3
-381.890E-3	-5.98027E-12	-382.145E-3	-381.890E-3	-7.69401E-3	40.0449E-12	-1.49109E+0	22.2587E-3
-393.701E-3	-6.11672E-12	-394.015E-3	-393.701E-3	-74.9471E-3	39.9317E-12	-1.51071E+0	28.4330E-3
-405.512E-3	-6.28947E-12	-405.825E-3	-405.512E-3	-85.3384E-3	40.0029E-12	-1.52789E+0	25.2027E-3
-417.323E-3	-6.42453E-12	-417.634E-3	-417.323E-3	113.549E-3	39.9947E-12	-1.46365E+0	24.3238E-3
-429.134E-3	-6.61061E-12	-429.434E-3	-429.134E-3	-17.7038E-3	39.9737E-12	-1.51217E+0	28.3173E-3
-440.945E-3	-6.75915E-12	-441.233E-3	-440.945E-3	89.5545E-3	39.9918E-12	-1.48623E+0	28.0820E-3
-452.756E-3	-6.96280E-12	-453.036E-3	-452.756E-3	-293.732E-3	39.9548E-12	-1.63607E+0	28.6322E-3
-464.567E-3	-7.19798E-12	-464.859E-3	-464.567E-3	-87.7747E-3	40.0067E-12	-1.58549E+0	26.9634E-3
-476.378E-3	-7.40642E-12	-476.692E-3	-476.378E-3	-161.151E-3	39.9442E-12	-1.61488E+0	30.2016E-3
-488.189E-3	-7.87395E-12	-488.419E-3	-488.189E-3	-49.4140E-3	40.0832E-12	-1.59668E+0	22.9747E-3
-500.000E-3	-8.08780E-12	-500.252E-3	-500.000E-3	-60.1589E-3	40.0366E-12	-1.64843E+0	26.6209E-3
