Experiment	bias spectroscopy	
Date	30.11.2015 20:37:48	
User		
X (m)	29.1493E-9	
Y (m)	-166.522E-9	
Z (m)	-3.75578E-9	
Z offset (m)	0E+0	
Settling time (s)	30E-3	
Integration time (s)	200E-3	
Z-Ctrl hold	TRUE	
Final Z (m)	-3.75578E-9	
Filter type	None	
Order		
Cutoff frq		
Current (A)	85.8689E-12	
Z (m)	-3.75578E-9	
Phase (deg)	1.45916E+0	
Amplitude (m)	40.4605E-12	
Frequency Shift (Hz)	-203.034E-3	
Excitation (V)	13.5799E-3	

[DATA]
Bias calc (V)	Current (A)	Applied Voltage measured (V)	Bias (V)	Phase (deg)	Amplitude (m)	Frequency Shift (Hz)	Excitation (V)
1.00000E+0	85.2827E-12	999.319E-3	1.00000E+0	-25.7114E-3	40.0728E-12	-622.744E-3	21.6137E-3
988.189E-3	84.1716E-12	987.518E-3	988.189E-3	5.32112E-3	39.8534E-12	-618.385E-3	26.8632E-3
976.378E-3	84.0700E-12	975.756E-3	976.378E-3	163.342E-3	40.0237E-12	-547.486E-3	26.7554E-3
964.567E-3	82.6620E-12	963.891E-3	964.567E-3	162.611E-3	40.0288E-12	-491.953E-3	24.6950E-3
952.756E-3	81.8045E-12	952.137E-3	952.756E-3	-104.575E-3	39.9730E-12	-604.124E-3	26.9688E-3
940.945E-3	81.1453E-12	940.305E-3	940.945E-3	-144.920E-3	40.0639E-12	-624.178E-3	22.5335E-3
929.134E-3	80.3526E-12	928.482E-3	929.134E-3	-242.997E-3	39.9768E-12	-660.057E-3	23.6897E-3
917.323E-3	79.4564E-12	916.736E-3	917.323E-3	148.369E-3	39.9917E-12	-602.695E-3	23.2559E-3
905.512E-3	79.0165E-12	904.872E-3	905.512E-3	60.3890E-3	40.0703E-12	-621.244E-3	19.5074E-3
893.701E-3	78.1498E-12	893.120E-3	893.701E-3	-33.4365E-3	39.9918E-12	-645.485E-3	24.1280E-3
881.890E-3	76.8428E-12	881.279E-3	881.890E-3	-18.4606E-3	40.0746E-12	-611.611E-3	19.8887E-3
870.079E-3	76.3787E-12	869.473E-3	870.079E-3	103.229E-3	40.0543E-12	-581.279E-3	23.6151E-3
858.268E-3	75.4786E-12	857.645E-3	858.268E-3	167.653E-3	39.9529E-12	-549.619E-3	22.7266E-3
846.457E-3	74.7359E-12	845.809E-3	846.457E-3	109.678E-3	39.9532E-12	-535.299E-3	23.6930E-3
834.646E-3	73.9872E-12	834.037E-3	834.646E-3	-98.6953E-3	40.0843E-12	-608.020E-3	20.9877E-3
822.835E-3	72.9302E-12	822.224E-3	822.835E-3	-13.8543E-3	39.8937E-12	-606.572E-3	26.6072E-3
811.024E-3	72.0890E-12	810.395E-3	811.024E-3	179.088E-3	39.9880E-12	-525.277E-3	25.9418E-3
799.213E-3	71.4599E-12	798.626E-3	799.213E-3	172.827E-3	40.0221E-12	-508.819E-3	23.5234E-3
787.402E-3	70.4889E-12	786.798E-3	787.402E-3	-116.306E-3	40.0031E-12	-589.826E-3	23.8100E-3
775.591E-3	69.4040E-12	775.020E-3	775.591E-3	16.8885E-3	39.9949E-12	-510.485E-3	25.1402E-3
763.780E-3	69.0894E-12	763.192E-3	763.780E-3	22.4315E-3	39.9783E-12	-546.547E-3	23.5573E-3
751.969E-3	68.3329E-12	751.417E-3	751.969E-3	-186.105E-3	39.9625E-12	-587.342E-3	26.8854E-3
740.157E-3	67.5415E-12	739.618E-3	740.157E-3	17.7180E-3	39.9304E-12	-541.711E-3	25.2446E-3
728.346E-3	66.9308E-12	727.776E-3	728.346E-3	-77.7481E-3	40.1078E-12	-578.004E-3	23.2502E-3
716.535E-3	65.4438E-12	715.991E-3	716.535E-3	98.9854E-3	39.8830E-12	-532.265E-3	26.7792E-3
704.724E-3	64.6853E-12	704.301E-3	704.724E-3	-24.2524E-3	40.0740E-12	-571.377E-3	24.9726E-3
692.913E-3	63.6822E-12	692.502E-3	692.913E-3	-32.1579E-3	39.9724E-12	-562.720E-3	27.7379E-3
681.102E-3	62.8360E-12	680.719E-3	681.102E-3	-34.7933E-3	39.9909E-12	-558.824E-3	23.1903E-3
669.291E-3	61.7340E-12	668.902E-3	669.291E-3	61.4492E-3	39.9915E-12	-539.058E-3	26.4100E-3
657.480E-3	61.3035E-12	657.064E-3	657.480E-3	-142.611E-3	40.0129E-12	-600.389E-3	23.2778E-3
645.669E-3	61.0401E-12	645.256E-3	645.669E-3	157.149E-3	40.0290E-12	-515.287E-3	25.0869E-3
633.858E-3	59.5227E-12	633.448E-3	633.858E-3	131.264E-3	39.9717E-12	-514.079E-3	27.2879E-3
622.047E-3	58.7496E-12	621.647E-3	622.047E-3	24.8067E-3	40.0025E-12	-524.725E-3	25.1420E-3
610.236E-3	57.4902E-12	609.890E-3	610.236E-3	-203.958E-3	39.9441E-12	-606.374E-3	23.8770E-3
598.425E-3	56.9294E-12	598.076E-3	598.425E-3	201.875E-3	40.1352E-12	-500.060E-3	19.8766E-3
586.614E-3	56.0683E-12	586.273E-3	586.614E-3	-95.9072E-3	39.9390E-12	-597.079E-3	24.5120E-3
574.803E-3	54.9249E-12	574.456E-3	574.803E-3	70.0736E-3	40.0122E-12	-564.140E-3	24.3173E-3
562.992E-3	54.7961E-12	562.675E-3	562.992E-3	-48.8763E-3	40.1342E-12	-587.134E-3	22.2800E-3
551.181E-3	53.1960E-12	550.863E-3	551.181E-3	-20.2378E-3	40.0277E-12	-586.116E-3	23.0431E-3
539.370E-3	52.1213E-12	538.996E-3	539.370E-3	175.942E-3	39.9963E-12	-485.211E-3	24.6024E-3
527.559E-3	51.2312E-12	527.209E-3	527.559E-3	-195.665E-3	40.0041E-12	-591.665E-3	22.7924E-3
515.748E-3	50.3745E-12	515.371E-3	515.748E-3	58.8823E-3	40.0169E-12	-549.037E-3	25.4366E-3
503.937E-3	49.3457E-12	503.590E-3	503.937E-3	-133.871E-3	40.0381E-12	-600.083E-3	24.8919E-3
492.126E-3	47.8574E-12	491.763E-3	492.126E-3	77.1328E-3	39.9913E-12	-544.663E-3	25.7369E-3
480.315E-3	47.5550E-12	479.959E-3	480.315E-3	-133.852E-3	40.0838E-12	-619.660E-3	24.0692E-3
468.504E-3	46.4530E-12	468.167E-3	468.504E-3	186.667E-3	40.0053E-12	-545.266E-3	24.6545E-3
456.693E-3	45.6766E-12	456.349E-3	456.693E-3	110.453E-3	40.0173E-12	-532.563E-3	25.7709E-3
444.882E-3	44.4503E-12	444.591E-3	444.882E-3	71.7568E-3	39.9793E-12	-521.067E-3	24.0053E-3
433.071E-3	42.9993E-12	432.744E-3	433.071E-3	61.5461E-3	39.8814E-12	-551.761E-3	28.7987E-3
421.260E-3	42.2747E-12	420.929E-3	421.260E-3	-83.2466E-3	40.0831E-12	-610.869E-3	23.7841E-3
409.449E-3	41.5879E-12	409.148E-3	409.449E-3	77.3046E-3	40.0876E-12	-563.628E-3	24.3856E-3
397.638E-3	40.5201E-12	397.296E-3	397.638E-3	-18.6295E-3	39.9029E-12	-593.417E-3	25.5639E-3
385.827E-3	38.9104E-12	385.545E-3	385.827E-3	195.249E-3	40.0086E-12	-526.903E-3	24.9059E-3
374.016E-3	38.0812E-12	373.693E-3	374.016E-3	-40.2985E-3	40.0366E-12	-596.232E-3	22.3259E-3
362.205E-3	36.9797E-12	361.895E-3	362.205E-3	49.5174E-3	39.9151E-12	-569.582E-3	27.0567E-3
350.394E-3	36.0970E-12	350.145E-3	350.394E-3	-97.7119E-3	40.1085E-12	-606.084E-3	22.4522E-3
338.583E-3	35.0823E-12	338.288E-3	338.583E-3	-73.0988E-3	39.9716E-12	-653.912E-3	27.9136E-3
326.772E-3	33.9857E-12	326.504E-3	326.772E-3	125.958E-3	39.9773E-12	-581.896E-3	25.3379E-3
314.961E-3	33.0022E-12	314.666E-3	314.961E-3	-35.8491E-3	40.0721E-12	-623.503E-3	21.3747E-3
303.150E-3	31.5203E-12	302.853E-3	303.150E-3	-40.2709E-3	40.0295E-12	-617.899E-3	23.1944E-3
291.339E-3	30.3904E-12	291.101E-3	291.339E-3	13.1652E-3	39.9947E-12	-622.058E-3	26.3780E-3
279.528E-3	28.9730E-12	279.278E-3	279.528E-3	-32.5074E-3	40.0234E-12	-648.044E-3	25.5622E-3
267.717E-3	28.1582E-12	267.461E-3	267.717E-3	74.2912E-3	39.9974E-12	-606.171E-3	27.2026E-3
255.906E-3	26.7523E-12	255.633E-3	255.906E-3	-110.501E-3	39.9770E-12	-659.297E-3	24.5009E-3
244.094E-3	25.8498E-12	243.869E-3	244.094E-3	55.4451E-3	40.0211E-12	-635.358E-3	25.6254E-3
232.283E-3	24.3552E-12	232.013E-3	232.283E-3	47.6671E-3	39.9942E-12	-651.747E-3	26.4711E-3
220.472E-3	22.9523E-12	220.181E-3	220.472E-3	-46.4752E-3	40.0255E-12	-675.262E-3	24.8929E-3
208.661E-3	22.1082E-12	208.403E-3	208.661E-3	204.326E-3	40.0356E-12	-606.619E-3	25.0224E-3
196.850E-3	20.4296E-12	196.573E-3	196.850E-3	-123.958E-3	39.9812E-12	-715.668E-3	24.4028E-3
185.039E-3	19.0089E-12	184.806E-3	185.039E-3	100.640E-3	40.0161E-12	-649.615E-3	25.2390E-3
173.228E-3	17.4900E-12	172.992E-3	173.228E-3	-133.999E-3	40.0335E-12	-716.826E-3	24.3520E-3
161.417E-3	16.2111E-12	161.160E-3	161.417E-3	68.4060E-3	39.9324E-12	-675.371E-3	28.8375E-3
149.606E-3	14.8977E-12	149.331E-3	149.606E-3	-17.8187E-3	40.0512E-12	-720.363E-3	26.6517E-3
137.795E-3	13.6607E-12	137.531E-3	137.795E-3	-118.937E-3	40.0569E-12	-765.560E-3	23.2437E-3
125.984E-3	12.3323E-12	125.772E-3	125.984E-3	178.692E-3	39.9737E-12	-651.009E-3	26.9742E-3
114.173E-3	11.0727E-12	113.934E-3	114.173E-3	-111.217E-3	39.9156E-12	-730.202E-3	28.0098E-3
102.362E-3	9.71096E-12	102.132E-3	102.362E-3	-35.5881E-3	40.0109E-12	-719.150E-3	26.9974E-3
90.5512E-3	8.57157E-12	90.3191E-3	90.5512E-3	-118.620E-3	40.0778E-12	-763.518E-3	25.0353E-3
78.7402E-3	7.44862E-12	78.4837E-3	78.7402E-3	164.626E-3	39.9466E-12	-682.732E-3	27.5815E-3
66.9291E-3	6.22780E-12	66.6266E-3	66.9291E-3	-85.5690E-3	39.9936E-12	-757.008E-3	25.1772E-3
55.1181E-3	5.09741E-12	54.8526E-3	55.1181E-3	-30.9199E-3	39.9333E-12	-744.739E-3	31.3640E-3
43.3071E-3	4.00882E-12	43.0278E-3	43.3071E-3	19.3834E-3	39.9972E-12	-771.958E-3	28.0811E-3
31.4961E-3	2.96417E-12	31.2048E-3	31.4961E-3	-3.41861E-3	40.0318E-12	-778.897E-3	26.0387E-3
19.6850E-3	1.82778E-12	19.4091E-3	19.6850E-3	73.3703E-3	40.0101E-12	-745.987E-3	24.5869E-3
7.87402E-3	722.195E-15	7.54579E-3	7.87402E-3	16.5808E-3	39.9539E-12	-763.446E-3	27.1786E-3
-3.93701E-3	-448.059E-15	-4.32396E-3	-3.93701E-3	-207.912E-3	40.0378E-12	-856.468E-3	25.0775E-3
-15.7480E-3	-1.59498E-12	-16.1182E-3	-15.7480E-3	150.857E-3	40.0331E-12	-764.225E-3	24.5729E-3
-27.5591E-3	-2.68365E-12	-27.9316E-3	-27.5591E-3	26.3812E-3	39.9120E-12	-810.948E-3	29.2549E-3
-39.3701E-3	-3.73189E-12	-39.7047E-3	-39.3701E-3	39.1139E-3	40.0312E-12	-816.265E-3	28.6466E-3
-51.1811E-3	-4.65591E-12	-51.5591E-3	-51.1811E-3	-45.2156E-3	39.9891E-12	-825.198E-3	26.4611E-3
-62.9921E-3	-5.54738E-12	-63.3279E-3	-62.9921E-3	-174.966E-3	39.9385E-12	-885.148E-3	29.9548E-3
-74.8032E-3	-6.27230E-12	-75.1618E-3	-74.8032E-3	-88.1057E-3	40.0627E-12	-901.909E-3	25.3988E-3
-86.6142E-3	-6.77269E-12	-87.0132E-3	-86.6142E-3	131.699E-3	40.0018E-12	-829.452E-3	27.2654E-3
-98.4252E-3	-7.33812E-12	-98.7899E-3	-98.4252E-3	-24.1485E-3	39.9877E-12	-866.079E-3	28.6590E-3
-110.236E-3	-7.69902E-12	-110.649E-3	-110.236E-3	-112.708E-3	39.8670E-12	-888.111E-3	31.4641E-3
-122.047E-3	-8.29895E-12	-122.394E-3	-122.047E-3	97.1518E-3	40.0108E-12	-845.270E-3	26.5044E-3
-133.858E-3	-8.64165E-12	-134.240E-3	-133.858E-3	-169.089E-3	40.0203E-12	-939.069E-3	27.0544E-3
-145.669E-3	-9.00469E-12	-146.045E-3	-145.669E-3	-5.47605E-3	40.0252E-12	-912.361E-3	26.7499E-3
-157.480E-3	-9.40515E-12	-157.813E-3	-157.480E-3	2.51811E-3	39.9831E-12	-919.268E-3	28.7409E-3
-169.291E-3	-9.76555E-12	-169.687E-3	-169.291E-3	-11.2319E-3	40.0066E-12	-908.770E-3	25.2081E-3
-181.102E-3	-10.2264E-12	-181.437E-3	-181.102E-3	-151.331E-3	39.9650E-12	-983.812E-3	25.3527E-3
-192.913E-3	-10.7161E-12	-193.245E-3	-192.913E-3	-68.5584E-3	39.9751E-12	-1.00484E+0	27.5791E-3
-204.724E-3	-11.3618E-12	-205.077E-3	-204.724E-3	103.467E-3	39.9746E-12	-942.937E-3	28.2111E-3
-216.535E-3	-11.7058E-12	-216.876E-3	-216.535E-3	-104.276E-3	40.0036E-12	-980.045E-3	24.9509E-3
-228.346E-3	-12.3303E-12	-228.692E-3	-228.346E-3	53.0032E-3	40.0003E-12	-948.293E-3	27.3777E-3
-240.157E-3	-12.8756E-12	-240.493E-3	-240.157E-3	-34.5529E-3	40.0719E-12	-972.658E-3	25.7327E-3
-251.969E-3	-13.2783E-12	-252.314E-3	-251.969E-3	23.2005E-3	39.9437E-12	-954.664E-3	29.9337E-3
-263.780E-3	-13.9015E-12	-264.074E-3	-263.780E-3	-49.4085E-3	40.0418E-12	-998.565E-3	28.8218E-3
-275.591E-3	-14.6420E-12	-275.882E-3	-275.591E-3	-10.6845E-3	39.9682E-12	-996.539E-3	27.9905E-3
-287.402E-3	-14.9398E-12	-287.725E-3	-287.402E-3	-116.046E-3	39.9864E-12	-1.02471E+0	29.1322E-3
-299.213E-3	-15.6434E-12	-299.523E-3	-299.213E-3	-5.50228E-3	40.0320E-12	-1.02418E+0	27.7121E-3
-311.024E-3	-16.1982E-12	-311.349E-3	-311.024E-3	-11.4062E-3	40.0674E-12	-1.02302E+0	24.5610E-3
-322.835E-3	-16.6379E-12	-323.136E-3	-322.835E-3	14.4376E-3	40.0079E-12	-1.02207E+0	25.0155E-3
-334.646E-3	-17.2344E-12	-334.913E-3	-334.646E-3	-90.3569E-3	39.9665E-12	-1.04384E+0	26.6644E-3
-346.457E-3	-17.6701E-12	-346.736E-3	-346.457E-3	-100.928E-3	39.9576E-12	-1.08068E+0	27.0046E-3
-358.268E-3	-18.1271E-12	-358.571E-3	-358.268E-3	44.8172E-3	39.9862E-12	-1.02979E+0	27.5908E-3
-370.079E-3	-18.8717E-12	-370.376E-3	-370.079E-3	48.2102E-3	40.0429E-12	-1.03257E+0	26.0956E-3
-381.890E-3	-19.4471E-12	-382.141E-3	-381.890E-3	-6.50982E-3	39.9664E-12	-1.04473E+0	26.9134E-3
-393.701E-3	-19.6900E-12	-394.009E-3	-393.701E-3	-126.117E-3	40.0033E-12	-1.13016E+0	25.3323E-3
-405.512E-3	-20.4972E-12	-405.820E-3	-405.512E-3	-88.1857E-3	40.0005E-12	-1.14005E+0	25.2949E-3
-417.323E-3	-21.2512E-12	-417.621E-3	-417.323E-3	92.3050E-3	39.9764E-12	-1.10948E+0	30.7464E-3
-429.134E-3	-21.6275E-12	-429.428E-3	-429.134E-3	-114.887E-3	40.0443E-12	-1.17487E+0	29.0661E-3
-440.945E-3	-22.4485E-12	-441.229E-3	-440.945E-3	19.2052E-3	40.0784E-12	-1.14301E+0	25.7243E-3
-452.756E-3	-22.8435E-12	-453.029E-3	-452.756E-3	-27.0389E-3	39.9732E-12	-1.15969E+0	26.3063E-3
-464.567E-3	-23.1964E-12	-464.856E-3	-464.567E-3	-128.160E-3	39.9837E-12	-1.20485E+0	26.0870E-3
-476.378E-3	-23.5186E-12	-476.692E-3	-476.378E-3	-112.902E-3	40.0356E-12	-1.23489E+0	26.7900E-3
-488.189E-3	-24.1274E-12	-488.417E-3	-488.189E-3	46.5321E-3	40.0492E-12	-1.20369E+0	25.6975E-3
-500.000E-3	-24.6640E-12	-500.255E-3	-500.000E-3	-51.9658E-3	40.0006E-12	-1.19974E+0	26.0852E-3
