Experiment	bias spectroscopy	
Date	01.12.2015 04:34:22	
User		
X (m)	280.921E-9	
Y (m)	-138.355E-9	
Z (m)	-4.07703E-9	
Z offset (m)	0E+0	
Settling time (s)	30E-3	
Integration time (s)	200E-3	
Z-Ctrl hold	TRUE	
Final Z (m)	-4.07703E-9	
Filter type	None	
Order		
Cutoff frq		
Current (A)	41.2508E-12	
Z (m)	-4.07703E-9	
Phase (deg)	450.347E-3	
Amplitude (m)	39.784E-12	
Frequency Shift (Hz)	-928.12E-3	
Excitation (V)	24.5352E-3	

[DATA]
Bias calc (V)	Current (A)	Applied Voltage measured (V)	Bias (V)	Phase (deg)	Amplitude (m)	Frequency Shift (Hz)	Excitation (V)
1.00000E+0	42.3291E-12	999.328E-3	1.00000E+0	99.2216E-3	40.0190E-12	-1.06313E+0	25.2043E-3
988.189E-3	41.8034E-12	987.532E-3	988.189E-3	-15.6830E-3	40.0618E-12	-1.10429E+0	22.1145E-3
976.378E-3	40.8827E-12	975.764E-3	976.378E-3	214.262E-3	39.9288E-12	-1.00326E+0	28.3193E-3
964.567E-3	41.0703E-12	963.892E-3	964.567E-3	-33.6482E-3	39.9650E-12	-1.06536E+0	26.9730E-3
952.756E-3	40.0297E-12	952.138E-3	952.756E-3	-62.6807E-3	40.0106E-12	-1.08819E+0	24.6905E-3
940.945E-3	39.9208E-12	940.306E-3	940.945E-3	79.7345E-3	39.9879E-12	-1.05354E+0	24.3856E-3
929.134E-3	39.2699E-12	928.482E-3	929.134E-3	8.59246E-3	39.9687E-12	-1.07138E+0	24.0243E-3
917.323E-3	39.1189E-12	916.734E-3	917.323E-3	152.534E-3	40.0253E-12	-1.02240E+0	24.3559E-3
905.512E-3	38.4256E-12	904.874E-3	905.512E-3	-28.3492E-3	39.9169E-12	-1.08320E+0	29.8671E-3
893.701E-3	38.1545E-12	893.119E-3	893.701E-3	-50.0547E-3	40.0768E-12	-1.09367E+0	24.0131E-3
881.890E-3	37.7931E-12	881.278E-3	881.890E-3	22.7451E-3	40.0312E-12	-1.06035E+0	23.8521E-3
870.079E-3	37.0696E-12	869.469E-3	870.079E-3	-58.4512E-3	39.9911E-12	-1.07576E+0	25.5770E-3
858.268E-3	36.5593E-12	857.641E-3	858.268E-3	48.3716E-3	40.0111E-12	-1.04202E+0	24.3065E-3
846.457E-3	36.6353E-12	845.821E-3	846.457E-3	-72.3106E-3	40.0348E-12	-1.07993E+0	26.8307E-3
834.646E-3	35.9203E-12	834.040E-3	834.646E-3	204.728E-3	40.0248E-12	-985.481E-3	25.7438E-3
822.835E-3	35.5346E-12	822.222E-3	822.835E-3	-98.3416E-3	40.0681E-12	-1.06281E+0	23.0426E-3
811.024E-3	34.9266E-12	810.412E-3	811.024E-3	-29.1554E-3	40.0239E-12	-1.04041E+0	24.9971E-3
799.213E-3	34.3178E-12	798.644E-3	799.213E-3	-21.7069E-3	40.0280E-12	-1.05233E+0	21.8799E-3
787.402E-3	34.4171E-12	786.803E-3	787.402E-3	-68.2023E-3	40.0198E-12	-1.06411E+0	23.8613E-3
775.591E-3	33.3510E-12	775.016E-3	775.591E-3	106.839E-3	39.9808E-12	-1.01912E+0	25.6819E-3
763.780E-3	33.0707E-12	763.187E-3	763.780E-3	78.7551E-3	40.0676E-12	-988.772E-3	23.4953E-3
751.969E-3	32.4346E-12	751.409E-3	751.969E-3	13.7665E-3	39.8953E-12	-997.728E-3	27.2986E-3
740.157E-3	32.3892E-12	739.609E-3	740.157E-3	-20.8114E-3	40.0437E-12	-1.01906E+0	24.1222E-3
728.346E-3	31.8547E-12	727.767E-3	728.346E-3	112.790E-3	39.9818E-12	-971.859E-3	26.0656E-3
716.535E-3	31.4221E-12	715.986E-3	716.535E-3	24.9645E-3	40.0530E-12	-995.806E-3	25.5835E-3
704.724E-3	30.7289E-12	704.301E-3	704.724E-3	14.7129E-3	39.9861E-12	-986.068E-3	26.0317E-3
692.913E-3	30.4025E-12	692.502E-3	692.913E-3	45.9086E-3	39.9541E-12	-980.041E-3	25.9109E-3
681.102E-3	29.6470E-12	680.725E-3	681.102E-3	-92.6905E-3	39.9842E-12	-1.02858E+0	23.6758E-3
669.291E-3	29.3697E-12	668.910E-3	669.291E-3	-48.3750E-3	40.0366E-12	-1.01448E+0	22.8849E-3
657.480E-3	28.7741E-12	657.063E-3	657.480E-3	-81.0175E-3	40.0569E-12	-1.02380E+0	23.3143E-3
645.669E-3	28.3081E-12	645.264E-3	645.669E-3	98.0277E-3	39.9914E-12	-949.418E-3	25.7963E-3
633.858E-3	27.9143E-12	633.463E-3	633.858E-3	200.559E-3	39.9654E-12	-905.335E-3	28.6078E-3
622.047E-3	27.1829E-12	621.666E-3	622.047E-3	54.7051E-3	39.9685E-12	-935.150E-3	28.1303E-3
610.236E-3	27.1185E-12	609.901E-3	610.236E-3	-139.193E-3	39.9849E-12	-988.849E-3	28.1360E-3
598.425E-3	26.2885E-12	598.089E-3	598.425E-3	60.3708E-3	40.0499E-12	-948.543E-3	26.0965E-3
586.614E-3	25.9596E-12	586.282E-3	586.614E-3	811.622E-6	40.0135E-12	-969.133E-3	22.7086E-3
574.803E-3	25.2841E-12	574.461E-3	574.803E-3	-86.9462E-3	40.0640E-12	-995.835E-3	23.4279E-3
562.992E-3	24.4853E-12	562.681E-3	562.992E-3	54.1081E-3	39.9628E-12	-969.789E-3	24.4027E-3
551.181E-3	24.3075E-12	550.865E-3	551.181E-3	115.675E-3	39.9630E-12	-913.805E-3	26.8651E-3
539.370E-3	23.6721E-12	538.999E-3	539.370E-3	-44.1072E-3	40.0474E-12	-958.354E-3	22.7818E-3
527.559E-3	23.1315E-12	527.212E-3	527.559E-3	-106.899E-3	39.9644E-12	-1.01548E+0	27.5470E-3
515.748E-3	22.9513E-12	515.377E-3	515.748E-3	156.585E-3	40.0271E-12	-919.128E-3	25.0845E-3
503.937E-3	22.1224E-12	503.592E-3	503.937E-3	16.7924E-3	39.9539E-12	-951.819E-3	28.1294E-3
492.126E-3	21.7490E-12	491.773E-3	492.126E-3	52.4545E-3	39.9628E-12	-956.244E-3	26.3665E-3
480.315E-3	21.1744E-12	479.959E-3	480.315E-3	-142.329E-3	40.0188E-12	-1.02655E+0	23.9359E-3
468.504E-3	20.6878E-12	468.167E-3	468.504E-3	74.5455E-3	40.0350E-12	-966.365E-3	25.7796E-3
456.693E-3	20.2110E-12	456.362E-3	456.693E-3	56.0421E-3	40.0082E-12	-960.360E-3	27.5068E-3
444.882E-3	19.6786E-12	444.590E-3	444.882E-3	-94.8146E-3	40.0763E-12	-1.00213E+0	24.7557E-3
433.071E-3	18.9789E-12	432.760E-3	433.071E-3	-53.9210E-3	39.9757E-12	-999.106E-3	24.9978E-3
421.260E-3	18.4805E-12	420.954E-3	421.260E-3	-196.244E-3	40.0401E-12	-1.04381E+0	23.5212E-3
409.449E-3	17.9417E-12	409.162E-3	409.449E-3	38.3260E-3	40.0725E-12	-993.216E-3	24.0624E-3
397.638E-3	17.4077E-12	397.316E-3	397.638E-3	-76.7207E-3	39.9866E-12	-1.02892E+0	25.0930E-3
385.827E-3	16.9210E-12	385.555E-3	385.827E-3	178.699E-3	40.0208E-12	-928.635E-3	24.4942E-3
374.016E-3	16.3082E-12	373.702E-3	374.016E-3	51.4245E-3	39.9729E-12	-957.918E-3	26.7160E-3
362.205E-3	15.8325E-12	361.903E-3	362.205E-3	-66.2167E-3	39.9775E-12	-1.00478E+0	23.4726E-3
350.394E-3	15.3567E-12	350.160E-3	350.394E-3	32.8858E-3	40.0285E-12	-985.661E-3	25.7286E-3
338.583E-3	14.7119E-12	338.305E-3	338.583E-3	80.3165E-3	39.9324E-12	-949.545E-3	27.1689E-3
326.772E-3	14.2507E-12	326.517E-3	326.772E-3	3.73928E-3	39.9642E-12	-968.036E-3	28.0281E-3
314.961E-3	13.5703E-12	314.695E-3	314.961E-3	-18.7444E-3	39.9516E-12	-997.096E-3	28.3151E-3
303.150E-3	13.1788E-12	302.870E-3	303.150E-3	3.80130E-3	39.9468E-12	-995.515E-3	28.4829E-3
291.339E-3	12.6067E-12	291.119E-3	291.339E-3	32.4662E-3	39.9972E-12	-994.007E-3	30.7306E-3
279.528E-3	12.1759E-12	279.288E-3	279.528E-3	46.0233E-3	40.0392E-12	-980.814E-3	25.6492E-3
267.717E-3	11.5644E-12	267.477E-3	267.717E-3	165.522E-3	40.0029E-12	-910.599E-3	26.6444E-3
255.906E-3	11.2062E-12	255.655E-3	255.906E-3	-206.557E-3	39.9490E-12	-1.01944E+0	27.2958E-3
244.094E-3	10.6642E-12	243.876E-3	244.094E-3	6.46288E-3	40.0415E-12	-977.781E-3	25.2143E-3
232.283E-3	10.1069E-12	232.023E-3	232.283E-3	-61.1018E-3	39.9901E-12	-1.00226E+0	24.5128E-3
220.472E-3	9.64608E-12	220.194E-3	220.472E-3	-40.7015E-3	39.9176E-12	-1.00202E+0	29.0156E-3
208.661E-3	9.11863E-12	208.406E-3	208.661E-3	-127.652E-3	40.0695E-12	-1.04697E+0	25.6332E-3
196.850E-3	8.63812E-12	196.573E-3	196.850E-3	-97.3373E-3	40.1003E-12	-1.06939E+0	22.1625E-3
185.039E-3	8.03569E-12	184.809E-3	185.039E-3	-26.6849E-3	39.9696E-12	-1.06522E+0	26.4520E-3
173.228E-3	7.57812E-12	172.991E-3	173.228E-3	-71.7803E-3	39.9326E-12	-1.08294E+0	27.8609E-3
161.417E-3	7.03831E-12	161.151E-3	161.417E-3	14.3958E-3	40.0440E-12	-1.06089E+0	26.1610E-3
149.606E-3	6.45722E-12	149.329E-3	149.606E-3	126.083E-3	39.9616E-12	-1.02870E+0	29.6526E-3
137.795E-3	6.00942E-12	137.536E-3	137.795E-3	-111.983E-3	40.0042E-12	-1.09027E+0	24.8457E-3
125.984E-3	5.45128E-12	125.767E-3	125.984E-3	-73.5647E-3	40.0627E-12	-1.10745E+0	25.0890E-3
114.173E-3	4.95096E-12	113.941E-3	114.173E-3	71.2433E-3	39.9916E-12	-1.04722E+0	27.5599E-3
102.362E-3	4.39655E-12	102.139E-3	102.362E-3	-68.0401E-3	40.1040E-12	-1.09736E+0	20.7964E-3
90.5512E-3	3.87259E-12	90.3311E-3	90.5512E-3	-57.1749E-3	39.9119E-12	-1.09868E+0	29.1445E-3
78.7402E-3	3.32744E-12	78.5034E-3	78.7402E-3	-68.4666E-3	39.9917E-12	-1.11577E+0	25.1259E-3
66.9291E-3	2.81266E-12	66.6316E-3	66.9291E-3	-76.5666E-3	40.0710E-12	-1.12127E+0	26.6721E-3
55.1181E-3	2.25751E-12	54.8447E-3	55.1181E-3	102.848E-3	39.9808E-12	-1.06117E+0	26.1963E-3
43.3071E-3	1.75205E-12	43.0360E-3	43.3071E-3	-113.396E-3	39.9744E-12	-1.11995E+0	27.2415E-3
31.4961E-3	1.25416E-12	31.1983E-3	31.4961E-3	61.7584E-3	39.9755E-12	-1.07462E+0	26.0658E-3
19.6850E-3	738.685E-15	19.4002E-3	19.6850E-3	-143.827E-3	39.9456E-12	-1.15394E+0	28.8474E-3
7.87402E-3	224.717E-15	7.55333E-3	7.87402E-3	-88.7228E-3	39.9689E-12	-1.15895E+0	26.8593E-3
-3.93701E-3	-280.579E-15	-4.33849E-3	-3.93701E-3	84.0705E-3	39.9651E-12	-1.11056E+0	28.2444E-3
-15.7480E-3	-796.893E-15	-16.1259E-3	-15.7480E-3	27.9300E-3	40.0146E-12	-1.12795E+0	26.2455E-3
-27.5591E-3	-1.31314E-12	-27.9366E-3	-27.5591E-3	-100.534E-3	39.9839E-12	-1.18021E+0	27.3414E-3
-39.3701E-3	-1.82928E-12	-39.7038E-3	-39.3701E-3	-87.4059E-3	40.0151E-12	-1.20823E+0	25.3850E-3
-51.1811E-3	-2.32598E-12	-51.5516E-3	-51.1811E-3	148.741E-3	39.9690E-12	-1.13229E+0	25.7829E-3
-62.9921E-3	-2.79620E-12	-63.3327E-3	-62.9921E-3	72.1196E-3	40.0189E-12	-1.13816E+0	24.4106E-3
-74.8032E-3	-3.19088E-12	-75.1719E-3	-74.8032E-3	-34.5867E-3	39.9802E-12	-1.17031E+0	27.1168E-3
-86.6142E-3	-3.40055E-12	-87.0272E-3	-86.6142E-3	-201.467E-3	39.9800E-12	-1.23333E+0	27.7064E-3
-98.4252E-3	-3.61638E-12	-98.8014E-3	-98.4252E-3	17.8609E-3	40.0470E-12	-1.17600E+0	25.3670E-3
-110.236E-3	-3.86089E-12	-110.649E-3	-110.236E-3	56.7893E-3	40.0109E-12	-1.16238E+0	24.6842E-3
-122.047E-3	-4.09781E-12	-122.389E-3	-122.047E-3	-197.400E-3	40.0100E-12	-1.24171E+0	24.3072E-3
-133.858E-3	-4.39756E-12	-134.247E-3	-133.858E-3	-213.506E-3	40.0126E-12	-1.31741E+0	24.4029E-3
-145.669E-3	-4.70598E-12	-146.050E-3	-145.669E-3	-33.8284E-3	39.9368E-12	-1.23697E+0	28.2820E-3
-157.480E-3	-4.98298E-12	-157.824E-3	-157.480E-3	32.7243E-3	40.0027E-12	-1.24032E+0	28.7456E-3
-169.291E-3	-5.27305E-12	-169.685E-3	-169.291E-3	-110.604E-3	40.0314E-12	-1.28853E+0	25.5732E-3
-181.102E-3	-5.49934E-12	-181.434E-3	-181.102E-3	189.862E-3	39.9658E-12	-1.20981E+0	30.0431E-3
-192.913E-3	-5.87189E-12	-193.252E-3	-192.913E-3	43.6590E-3	40.0657E-12	-1.23848E+0	25.0469E-3
-204.724E-3	-6.05583E-12	-205.088E-3	-204.724E-3	-188.584E-3	39.9554E-12	-1.31384E+0	28.8042E-3
-216.535E-3	-6.33605E-12	-216.889E-3	-216.535E-3	41.6346E-3	39.9530E-12	-1.24238E+0	28.5699E-3
-228.346E-3	-6.54932E-12	-228.697E-3	-228.346E-3	-189.628E-3	40.0003E-12	-1.34602E+0	26.6785E-3
-240.157E-3	-7.00439E-12	-240.499E-3	-240.157E-3	24.4474E-3	39.9929E-12	-1.30660E+0	28.6666E-3
-251.969E-3	-7.20399E-12	-252.316E-3	-251.969E-3	-105.175E-3	39.9800E-12	-1.35295E+0	28.9559E-3
-263.780E-3	-7.64650E-12	-264.073E-3	-263.780E-3	58.9460E-3	39.9500E-12	-1.31299E+0	26.6541E-3
-275.591E-3	-8.00580E-12	-275.882E-3	-275.591E-3	-60.9474E-3	40.0661E-12	-1.36983E+0	25.5482E-3
-287.402E-3	-8.35525E-12	-287.721E-3	-287.402E-3	45.0883E-3	39.9992E-12	-1.33362E+0	28.6325E-3
-299.213E-3	-8.74303E-12	-299.510E-3	-299.213E-3	50.2240E-3	40.0009E-12	-1.32392E+0	28.4972E-3
-311.024E-3	-9.11974E-12	-311.339E-3	-311.024E-3	-29.1959E-3	40.0105E-12	-1.34567E+0	24.7063E-3
-322.835E-3	-9.40649E-12	-323.139E-3	-322.835E-3	27.1688E-3	40.0083E-12	-1.33637E+0	27.0500E-3
-334.646E-3	-9.72293E-12	-334.911E-3	-334.646E-3	102.981E-3	40.0299E-12	-1.31547E+0	23.7980E-3
-346.457E-3	-10.0950E-12	-346.728E-3	-346.457E-3	-214.423E-3	39.9875E-12	-1.43567E+0	24.9290E-3
-358.268E-3	-10.3566E-12	-358.563E-3	-358.268E-3	-56.1701E-3	39.9041E-12	-1.41714E+0	28.6382E-3
-370.079E-3	-10.6203E-12	-370.357E-3	-370.079E-3	-33.5982E-3	39.9796E-12	-1.43560E+0	27.2607E-3
-381.890E-3	-11.0519E-12	-382.130E-3	-381.890E-3	22.8517E-3	40.1104E-12	-1.40937E+0	21.3597E-3
-393.701E-3	-11.2571E-12	-394.004E-3	-393.701E-3	-120.986E-3	39.9594E-12	-1.47684E+0	26.0097E-3
-405.512E-3	-11.5884E-12	-405.814E-3	-405.512E-3	-3.14823E-3	40.0039E-12	-1.42636E+0	25.7739E-3
-417.323E-3	-12.0172E-12	-417.612E-3	-417.323E-3	6.40011E-3	40.0053E-12	-1.44042E+0	23.9398E-3
-429.134E-3	-12.5046E-12	-429.420E-3	-429.134E-3	-131.364E-3	39.9973E-12	-1.48042E+0	26.7333E-3
-440.945E-3	-12.6437E-12	-441.211E-3	-440.945E-3	-61.5700E-3	39.9084E-12	-1.49540E+0	28.1534E-3
-452.756E-3	-13.3697E-12	-453.009E-3	-452.756E-3	23.9530E-3	40.0143E-12	-1.49736E+0	26.3474E-3
-464.567E-3	-13.7040E-12	-464.837E-3	-464.567E-3	-141.796E-3	40.0406E-12	-1.56647E+0	27.5120E-3
-476.378E-3	-14.3755E-12	-476.671E-3	-476.378E-3	94.1240E-3	40.0170E-12	-1.50399E+0	26.3204E-3
-488.189E-3	-15.0625E-12	-488.400E-3	-488.189E-3	-81.5178E-3	39.9263E-12	-1.55506E+0	27.5403E-3
-500.000E-3	-15.7071E-12	-500.239E-3	-500.000E-3	29.5910E-3	40.0440E-12	-1.54357E+0	24.7841E-3
