Experiment	bias spectroscopy	
Date	01.12.2015 07:45:36	
User		
X (m)	281.474E-9	
Y (m)	-137.874E-9	
Z (m)	-4.07703E-9	
Z offset (m)	0E+0	
Settling time (s)	30E-3	
Integration time (s)	200E-3	
Z-Ctrl hold	TRUE	
Final Z (m)	-4.07703E-9	
Filter type	None	
Order		
Cutoff frq		
Current (A)	15.9872E-12	
Z (m)	-4.07703E-9	
Phase (deg)	-642.367E-3	
Amplitude (m)	39.8391E-12	
Frequency Shift (Hz)	-1.23924E+0	
Excitation (V)	29.9803E-3	

[DATA]
Bias calc (V)	Current (A)	Applied Voltage measured (V)	Bias (V)	Phase (deg)	Amplitude (m)	Frequency Shift (Hz)	Excitation (V)
1.00000E+0	15.5163E-12	999.341E-3	1.00000E+0	-91.5653E-3	39.9845E-12	-1.10621E+0	26.1724E-3
988.189E-3	15.0948E-12	987.548E-3	988.189E-3	-15.1791E-3	39.9724E-12	-1.09058E+0	27.8138E-3
976.378E-3	15.2734E-12	975.794E-3	976.378E-3	-13.5890E-3	40.0414E-12	-1.08696E+0	25.2279E-3
964.567E-3	14.9953E-12	963.921E-3	964.567E-3	21.4598E-3	40.0207E-12	-1.07249E+0	25.7807E-3
952.756E-3	14.8365E-12	952.161E-3	952.756E-3	58.9684E-3	39.9511E-12	-1.05571E+0	26.7841E-3
940.945E-3	14.6162E-12	940.326E-3	940.945E-3	32.6580E-3	39.9333E-12	-1.04662E+0	26.3688E-3
929.134E-3	14.7848E-12	928.509E-3	929.134E-3	-95.5992E-3	40.0489E-12	-1.05490E+0	24.6155E-3
917.323E-3	14.5831E-12	916.754E-3	917.323E-3	36.7504E-3	40.0435E-12	-1.02813E+0	22.8905E-3
905.512E-3	14.2573E-12	904.894E-3	905.512E-3	49.7342E-3	39.9021E-12	-1.00710E+0	26.6197E-3
893.701E-3	14.3523E-12	893.138E-3	893.701E-3	73.1912E-3	40.0152E-12	-989.761E-3	24.4711E-3
881.890E-3	13.9779E-12	881.302E-3	881.890E-3	-85.8193E-3	39.9656E-12	-1.02443E+0	27.3142E-3
870.079E-3	13.9363E-12	869.496E-3	870.079E-3	-19.1078E-3	40.0070E-12	-998.846E-3	24.4857E-3
858.268E-3	14.0727E-12	857.674E-3	858.268E-3	-102.978E-3	39.9962E-12	-1.04659E+0	25.4734E-3
846.457E-3	13.7590E-12	845.842E-3	846.457E-3	138.941E-3	39.9917E-12	-991.827E-3	25.4065E-3
834.646E-3	13.4918E-12	834.068E-3	834.646E-3	-11.7130E-3	40.0042E-12	-1.01084E+0	25.2284E-3
822.835E-3	13.3829E-12	822.252E-3	822.835E-3	79.0367E-3	39.9461E-12	-969.128E-3	27.3225E-3
811.024E-3	13.2583E-12	810.428E-3	811.024E-3	-20.5697E-3	39.9952E-12	-988.389E-3	25.6622E-3
799.213E-3	13.1170E-12	798.658E-3	799.213E-3	15.9086E-3	39.9752E-12	-981.287E-3	25.2910E-3
787.402E-3	12.8821E-12	786.828E-3	787.402E-3	26.9483E-3	40.0336E-12	-969.508E-3	27.8201E-3
775.591E-3	12.7297E-12	775.037E-3	775.591E-3	-74.0071E-3	40.0363E-12	-1.01015E+0	23.6589E-3
763.780E-3	12.6886E-12	763.209E-3	763.780E-3	16.8295E-3	39.9434E-12	-975.329E-3	29.0054E-3
751.969E-3	12.4949E-12	751.435E-3	751.969E-3	143.431E-3	39.9715E-12	-942.353E-3	25.8484E-3
740.157E-3	12.5301E-12	739.639E-3	740.157E-3	-79.2410E-3	40.0521E-12	-1.00223E+0	23.5987E-3
728.346E-3	12.1791E-12	727.801E-3	728.346E-3	41.8466E-3	40.0743E-12	-972.965E-3	24.6572E-3
716.535E-3	12.1420E-12	716.015E-3	716.535E-3	113.405E-3	40.0035E-12	-937.164E-3	25.7402E-3
704.724E-3	11.9203E-12	704.322E-3	704.724E-3	85.8369E-3	39.9575E-12	-936.693E-3	27.0796E-3
692.913E-3	11.8698E-12	692.522E-3	692.913E-3	-72.9433E-3	40.0405E-12	-985.458E-3	26.6376E-3
681.102E-3	11.5437E-12	680.747E-3	681.102E-3	54.0287E-3	39.9575E-12	-947.986E-3	25.6869E-3
669.291E-3	11.3630E-12	668.930E-3	669.291E-3	-29.2764E-3	39.8784E-12	-973.257E-3	27.1210E-3
657.480E-3	11.4217E-12	657.086E-3	657.480E-3	-46.5374E-3	40.0986E-12	-975.852E-3	25.4066E-3
645.669E-3	11.0808E-12	645.281E-3	645.669E-3	14.1442E-3	39.9317E-12	-968.098E-3	29.7946E-3
633.858E-3	11.0923E-12	633.478E-3	633.858E-3	137.219E-3	40.0526E-12	-917.593E-3	24.3461E-3
622.047E-3	10.9598E-12	621.674E-3	622.047E-3	-126.188E-3	40.0089E-12	-995.584E-3	23.9149E-3
610.236E-3	10.6703E-12	609.909E-3	610.236E-3	-132.839E-3	39.9065E-12	-1.01779E+0	27.7438E-3
598.425E-3	10.5736E-12	598.092E-3	598.425E-3	169.291E-3	40.0161E-12	-921.398E-3	26.9135E-3
586.614E-3	10.2838E-12	586.280E-3	586.614E-3	-28.5706E-3	39.9428E-12	-947.850E-3	27.1912E-3
574.803E-3	10.1906E-12	574.464E-3	574.803E-3	-84.3520E-3	40.0392E-12	-986.121E-3	26.9775E-3
562.992E-3	10.0202E-12	562.692E-3	562.992E-3	89.8528E-3	40.0125E-12	-923.352E-3	27.2446E-3
551.181E-3	9.82960E-12	550.875E-3	551.181E-3	42.1897E-3	39.9989E-12	-910.877E-3	26.4992E-3
539.370E-3	9.73680E-12	539.023E-3	539.370E-3	30.0510E-3	39.9762E-12	-931.035E-3	29.5748E-3
527.559E-3	9.54544E-12	527.234E-3	527.559E-3	-3.14535E-3	40.0150E-12	-935.884E-3	25.9182E-3
515.748E-3	9.42971E-12	515.399E-3	515.748E-3	97.2922E-3	40.1056E-12	-893.677E-3	24.6884E-3
503.937E-3	9.12763E-12	503.612E-3	503.937E-3	-103.396E-3	39.9996E-12	-952.822E-3	22.8371E-3
492.126E-3	8.89924E-12	491.787E-3	492.126E-3	28.9591E-3	39.9862E-12	-927.279E-3	26.8308E-3
480.315E-3	8.76424E-12	479.985E-3	480.315E-3	97.3796E-3	40.0370E-12	-910.714E-3	26.0111E-3
468.504E-3	8.56728E-12	468.189E-3	468.504E-3	30.2086E-3	39.9762E-12	-922.504E-3	24.3148E-3
456.693E-3	8.44846E-12	456.378E-3	456.693E-3	63.7005E-3	40.0122E-12	-899.822E-3	23.0583E-3
444.882E-3	8.18273E-12	444.608E-3	444.882E-3	-22.0151E-3	39.9246E-12	-921.421E-3	26.7625E-3
433.071E-3	8.08210E-12	432.771E-3	433.071E-3	-23.9382E-3	40.0092E-12	-921.701E-3	25.7609E-3
421.260E-3	7.90697E-12	420.963E-3	421.260E-3	-137.569E-3	40.0501E-12	-966.037E-3	28.0000E-3
409.449E-3	7.65319E-12	409.187E-3	409.449E-3	-3.87460E-3	39.9618E-12	-935.249E-3	29.4710E-3
397.638E-3	7.42469E-12	397.328E-3	397.638E-3	24.4822E-3	40.0261E-12	-931.726E-3	28.3475E-3
385.827E-3	7.18320E-12	385.569E-3	385.827E-3	-92.9353E-3	40.0045E-12	-961.796E-3	25.7823E-3
374.016E-3	7.00222E-12	373.732E-3	374.016E-3	103.685E-3	39.9936E-12	-918.850E-3	26.6601E-3
362.205E-3	6.90515E-12	361.934E-3	362.205E-3	-13.3185E-3	39.9526E-12	-951.293E-3	26.6183E-3
350.394E-3	6.64317E-12	350.184E-3	350.394E-3	-48.9627E-3	39.9801E-12	-958.089E-3	23.8348E-3
338.583E-3	6.48356E-12	338.331E-3	338.583E-3	3.16594E-3	40.0409E-12	-943.154E-3	26.8299E-3
326.772E-3	6.31906E-12	326.547E-3	326.772E-3	-90.2536E-3	40.0759E-12	-984.909E-3	23.6664E-3
314.961E-3	6.08568E-12	314.708E-3	314.961E-3	-10.1492E-3	39.9513E-12	-964.741E-3	27.6257E-3
303.150E-3	5.98814E-12	302.890E-3	303.150E-3	-15.4771E-3	40.0281E-12	-972.179E-3	25.8311E-3
291.339E-3	5.87683E-12	291.133E-3	291.339E-3	150.455E-3	39.9911E-12	-928.151E-3	26.7839E-3
279.528E-3	5.60059E-12	279.313E-3	279.528E-3	-126.504E-3	40.0394E-12	-997.789E-3	24.6035E-3
267.717E-3	5.40398E-12	267.491E-3	267.717E-3	27.2450E-3	40.0093E-12	-949.836E-3	27.8690E-3
255.906E-3	5.13848E-12	255.669E-3	255.906E-3	56.3703E-3	39.9852E-12	-943.029E-3	27.5924E-3
244.094E-3	5.02206E-12	243.895E-3	244.094E-3	-195.990E-3	40.0361E-12	-1.00613E+0	23.7836E-3
232.283E-3	4.78993E-12	232.043E-3	232.283E-3	-11.4065E-3	39.9723E-12	-979.923E-3	26.1384E-3
220.472E-3	4.56928E-12	220.207E-3	220.472E-3	86.8088E-3	39.9739E-12	-925.474E-3	27.2522E-3
208.661E-3	4.42885E-12	208.430E-3	208.661E-3	18.3025E-3	40.0249E-12	-936.700E-3	25.3879E-3
196.850E-3	4.18577E-12	196.597E-3	196.850E-3	-206.295E-3	40.0491E-12	-1.02939E+0	25.5530E-3
185.039E-3	4.04938E-12	184.832E-3	185.039E-3	-29.4275E-3	40.0272E-12	-1.00894E+0	23.9678E-3
173.228E-3	3.75188E-12	173.020E-3	173.228E-3	38.0478E-3	39.9264E-12	-987.246E-3	23.4600E-3
161.417E-3	3.57731E-12	161.175E-3	161.417E-3	-55.0143E-3	39.9642E-12	-1.02353E+0	25.6845E-3
149.606E-3	3.38950E-12	149.354E-3	149.606E-3	-31.3836E-3	40.0191E-12	-1.03084E+0	26.8392E-3
137.795E-3	3.09642E-12	137.562E-3	137.795E-3	-60.3652E-3	39.9852E-12	-1.04287E+0	27.8785E-3
125.984E-3	2.85176E-12	125.799E-3	125.984E-3	-7.83202E-3	39.9007E-12	-1.01846E+0	28.8823E-3
114.173E-3	2.60511E-12	113.966E-3	114.173E-3	22.1329E-3	40.0550E-12	-1.02018E+0	27.2956E-3
102.362E-3	2.29783E-12	102.162E-3	102.362E-3	-60.7685E-3	39.9746E-12	-1.04098E+0	25.0343E-3
90.5512E-3	2.08951E-12	90.3575E-3	90.5512E-3	-51.7199E-3	40.0182E-12	-1.05819E+0	24.9877E-3
78.7402E-3	1.80775E-12	78.5214E-3	78.7402E-3	-111.908E-3	39.9750E-12	-1.07720E+0	24.9125E-3
66.9291E-3	1.55668E-12	66.6535E-3	66.9291E-3	59.4769E-3	39.9594E-12	-1.04028E+0	28.9507E-3
55.1181E-3	1.27325E-12	54.8795E-3	55.1181E-3	8.36582E-3	40.0290E-12	-1.06419E+0	27.7795E-3
43.3071E-3	973.754E-15	43.0556E-3	43.3071E-3	-25.0034E-3	40.0469E-12	-1.08330E+0	26.2403E-3
31.4961E-3	684.958E-15	31.2318E-3	31.4961E-3	7.92791E-3	39.9850E-12	-1.05849E+0	28.3692E-3
19.6850E-3	394.822E-15	19.4350E-3	19.6850E-3	-99.0213E-3	39.9623E-12	-1.10463E+0	29.8108E-3
7.87402E-3	86.9462E-15	7.58942E-3	7.87402E-3	-42.8517E-3	40.0492E-12	-1.09775E+0	27.1101E-3
-3.93701E-3	-216.221E-15	-4.30466E-3	-3.93701E-3	-51.5644E-3	39.9490E-12	-1.09619E+0	26.3120E-3
-15.7480E-3	-530.734E-15	-16.0807E-3	-15.7480E-3	96.4209E-3	40.0491E-12	-1.05018E+0	27.8299E-3
-27.5591E-3	-834.599E-15	-27.8978E-3	-27.5591E-3	-98.2689E-3	40.0013E-12	-1.10056E+0	23.6136E-3
-39.3701E-3	-1.15606E-12	-39.6705E-3	-39.3701E-3	8.48459E-3	39.9263E-12	-1.10184E+0	27.3661E-3
-51.1811E-3	-1.45374E-12	-51.5264E-3	-51.1811E-3	-28.5115E-3	40.0555E-12	-1.12304E+0	25.9422E-3
-62.9921E-3	-1.77319E-12	-63.2927E-3	-62.9921E-3	24.9419E-3	40.0471E-12	-1.11642E+0	25.9318E-3
-74.8032E-3	-1.96664E-12	-75.1315E-3	-74.8032E-3	-30.5647E-3	39.9731E-12	-1.14272E+0	28.1567E-3
-86.6142E-3	-2.13740E-12	-86.9926E-3	-86.6142E-3	-33.6452E-3	40.0710E-12	-1.12947E+0	27.3866E-3
-98.4252E-3	-2.21811E-12	-98.7683E-3	-98.4252E-3	-27.5162E-3	39.9653E-12	-1.14657E+0	26.7166E-3
-110.236E-3	-2.33612E-12	-110.617E-3	-110.236E-3	-113.404E-3	39.9671E-12	-1.18445E+0	28.0060E-3
-122.047E-3	-2.48363E-12	-122.371E-3	-122.047E-3	56.9886E-3	40.0846E-12	-1.17003E+0	24.7413E-3
-133.858E-3	-2.64049E-12	-134.220E-3	-133.858E-3	-2.98585E-3	40.0160E-12	-1.20042E+0	26.8630E-3
-145.669E-3	-2.77840E-12	-146.017E-3	-145.669E-3	36.8528E-3	39.9626E-12	-1.19117E+0	27.6945E-3
-157.480E-3	-2.91503E-12	-157.791E-3	-157.480E-3	12.9714E-3	39.9460E-12	-1.18337E+0	29.8123E-3
-169.291E-3	-3.06120E-12	-169.664E-3	-169.291E-3	-133.320E-3	39.9993E-12	-1.22869E+0	27.2823E-3
-181.102E-3	-3.20937E-12	-181.402E-3	-181.102E-3	50.0666E-3	39.9502E-12	-1.19637E+0	28.8508E-3
-192.913E-3	-3.34490E-12	-193.215E-3	-192.913E-3	38.2336E-3	40.0270E-12	-1.20057E+0	26.3847E-3
-204.724E-3	-3.46415E-12	-205.042E-3	-204.724E-3	23.4430E-3	39.9451E-12	-1.19622E+0	29.5844E-3
-216.535E-3	-3.62406E-12	-216.843E-3	-216.535E-3	17.4643E-3	40.0460E-12	-1.20627E+0	23.6672E-3
-228.346E-3	-3.77756E-12	-228.673E-3	-228.346E-3	-172.793E-3	40.0548E-12	-1.28436E+0	23.6239E-3
-240.157E-3	-3.84886E-12	-240.467E-3	-240.157E-3	171.876E-3	39.9850E-12	-1.18470E+0	24.8714E-3
-251.969E-3	-3.98641E-12	-252.291E-3	-251.969E-3	-80.1655E-3	40.0051E-12	-1.25874E+0	25.4941E-3
-263.780E-3	-4.19440E-12	-264.054E-3	-263.780E-3	76.4007E-3	40.0185E-12	-1.21019E+0	25.8526E-3
-275.591E-3	-4.36320E-12	-275.864E-3	-275.591E-3	18.8644E-3	39.9920E-12	-1.25207E+0	28.0950E-3
-287.402E-3	-4.53704E-12	-287.704E-3	-287.402E-3	-123.252E-3	39.9841E-12	-1.30469E+0	25.8639E-3
-299.213E-3	-4.67469E-12	-299.499E-3	-299.213E-3	-53.7516E-3	39.9970E-12	-1.29582E+0	26.3279E-3
-311.024E-3	-4.82713E-12	-311.326E-3	-311.024E-3	-29.6980E-3	39.9812E-12	-1.31841E+0	24.5996E-3
-322.835E-3	-4.93963E-12	-323.123E-3	-322.835E-3	-83.8333E-3	40.0067E-12	-1.34863E+0	25.8876E-3
-334.646E-3	-4.97971E-12	-334.899E-3	-334.646E-3	-166.522E-3	39.9564E-12	-1.37698E+0	28.2576E-3
-346.457E-3	-5.18434E-12	-346.715E-3	-346.457E-3	33.6818E-3	39.9956E-12	-1.33806E+0	29.8393E-3
-358.268E-3	-5.31768E-12	-358.557E-3	-358.268E-3	-37.6259E-3	39.9563E-12	-1.34425E+0	28.3949E-3
-370.079E-3	-5.38903E-12	-370.351E-3	-370.079E-3	-133.519E-3	40.0144E-12	-1.38025E+0	23.9589E-3
-381.890E-3	-5.55123E-12	-382.115E-3	-381.890E-3	-8.16394E-3	39.9346E-12	-1.37246E+0	29.1782E-3
-393.701E-3	-5.60798E-12	-393.993E-3	-393.701E-3	-129.864E-3	40.0375E-12	-1.42809E+0	28.7199E-3
-405.512E-3	-5.77556E-12	-405.798E-3	-405.512E-3	16.8102E-3	39.9436E-12	-1.39727E+0	28.6285E-3
-417.323E-3	-6.01992E-12	-417.600E-3	-417.323E-3	-31.9603E-3	40.0690E-12	-1.41135E+0	24.3411E-3
-429.134E-3	-6.16611E-12	-429.407E-3	-429.134E-3	-154.648E-3	39.9687E-12	-1.45813E+0	27.1142E-3
-440.945E-3	-6.27688E-12	-441.220E-3	-440.945E-3	115.028E-3	39.9477E-12	-1.40208E+0	28.4985E-3
-452.756E-3	-6.49990E-12	-453.021E-3	-452.756E-3	-115.506E-3	40.0110E-12	-1.46265E+0	26.3460E-3
-464.567E-3	-6.71415E-12	-464.838E-3	-464.567E-3	2.76553E-3	40.0105E-12	-1.42942E+0	27.4731E-3
-476.378E-3	-6.89222E-12	-476.667E-3	-476.378E-3	-46.7414E-3	40.0176E-12	-1.48484E+0	24.9949E-3
-488.189E-3	-7.27112E-12	-488.399E-3	-488.189E-3	-32.9130E-3	40.0474E-12	-1.47526E+0	25.6151E-3
-500.000E-3	-7.62287E-12	-500.237E-3	-500.000E-3	-69.9416E-3	39.9485E-12	-1.50719E+0	27.3990E-3
