Experiment	bias spectroscopy	
Date	01.12.2015 06:58:39	
User		
X (m)	281.717E-9	
Y (m)	-138.458E-9	
Z (m)	-4.07703E-9	
Z offset (m)	0E+0	
Settling time (s)	30E-3	
Integration time (s)	200E-3	
Z-Ctrl hold	TRUE	
Final Z (m)	-4.07703E-9	
Filter type	None	
Order		
Cutoff frq		
Current (A)	15.646E-12	
Z (m)	-4.07703E-9	
Phase (deg)	447.328E-3	
Amplitude (m)	40.0399E-12	
Frequency Shift (Hz)	-962.691E-3	
Excitation (V)	27.0921E-3	

[DATA]
Bias calc (V)	Current (A)	Applied Voltage measured (V)	Bias (V)	Phase (deg)	Amplitude (m)	Frequency Shift (Hz)	Excitation (V)
1.00000E+0	15.4177E-12	999.355E-3	1.00000E+0	-162.740E-3	40.0469E-12	-1.10530E+0	23.7608E-3
988.189E-3	14.9102E-12	987.558E-3	988.189E-3	-57.5568E-3	39.9478E-12	-1.09875E+0	26.6180E-3
976.378E-3	14.9570E-12	975.797E-3	976.378E-3	76.1546E-3	39.9890E-12	-1.07152E+0	26.4261E-3
964.567E-3	14.9525E-12	963.924E-3	964.567E-3	38.8240E-3	40.0518E-12	-1.05902E+0	22.5883E-3
952.756E-3	14.6311E-12	952.170E-3	952.756E-3	107.602E-3	39.9869E-12	-1.02672E+0	27.2227E-3
940.945E-3	14.6343E-12	940.335E-3	940.945E-3	120.540E-3	39.9219E-12	-1.00597E+0	29.1285E-3
929.134E-3	14.5370E-12	928.522E-3	929.134E-3	-72.6544E-3	39.9489E-12	-1.04507E+0	27.7481E-3
917.323E-3	14.2702E-12	916.765E-3	917.323E-3	22.7461E-3	40.0220E-12	-1.03368E+0	28.2350E-3
905.512E-3	14.2400E-12	904.910E-3	905.512E-3	86.0828E-3	39.9858E-12	-1.02084E+0	26.6188E-3
893.701E-3	13.9383E-12	893.153E-3	893.701E-3	-123.194E-3	40.0074E-12	-1.06700E+0	27.3565E-3
881.890E-3	14.0380E-12	881.309E-3	881.890E-3	169.658E-3	40.0410E-12	-964.422E-3	24.7514E-3
870.079E-3	13.8658E-12	869.499E-3	870.079E-3	45.6008E-3	40.0701E-12	-991.541E-3	24.0202E-3
858.268E-3	13.5960E-12	857.677E-3	858.268E-3	-86.3591E-3	39.9623E-12	-1.03350E+0	24.8620E-3
846.457E-3	13.5958E-12	845.844E-3	846.457E-3	179.250E-3	39.9574E-12	-968.311E-3	25.6277E-3
834.646E-3	13.5144E-12	834.068E-3	834.646E-3	-143.148E-3	39.9693E-12	-1.04231E+0	26.2716E-3
822.835E-3	13.4635E-12	822.256E-3	822.835E-3	29.6429E-3	39.9990E-12	-990.861E-3	24.7443E-3
811.024E-3	13.2329E-12	810.434E-3	811.024E-3	72.7120E-3	40.0147E-12	-968.329E-3	27.5376E-3
799.213E-3	13.0854E-12	798.672E-3	799.213E-3	-79.0990E-3	40.0284E-12	-1.02006E+0	24.1796E-3
787.402E-3	12.9387E-12	786.837E-3	787.402E-3	166.815E-3	39.9431E-12	-926.891E-3	29.4133E-3
775.591E-3	12.7943E-12	775.047E-3	775.591E-3	17.5370E-3	39.9437E-12	-956.442E-3	25.6980E-3
763.780E-3	12.4576E-12	763.216E-3	763.780E-3	-290.947E-3	39.9372E-12	-1.08082E+0	27.0980E-3
751.969E-3	12.4940E-12	751.448E-3	751.969E-3	31.2837E-3	40.0337E-12	-993.828E-3	25.3703E-3
740.157E-3	12.2645E-12	739.647E-3	740.157E-3	167.000E-3	40.0353E-12	-920.199E-3	26.3563E-3
728.346E-3	12.1308E-12	727.809E-3	728.346E-3	2.20187E-3	40.0105E-12	-977.637E-3	24.9398E-3
716.535E-3	11.9358E-12	716.018E-3	716.535E-3	61.7413E-3	39.9439E-12	-958.872E-3	27.1697E-3
704.724E-3	11.9010E-12	704.332E-3	704.724E-3	-33.7587E-3	39.9971E-12	-953.238E-3	28.7670E-3
692.913E-3	11.6543E-12	692.531E-3	692.913E-3	25.1678E-3	40.0214E-12	-940.138E-3	23.9996E-3
681.102E-3	11.5213E-12	680.764E-3	681.102E-3	70.5872E-3	39.9135E-12	-908.914E-3	29.3091E-3
669.291E-3	11.2821E-12	668.938E-3	669.291E-3	-98.8467E-3	39.9453E-12	-963.122E-3	25.4106E-3
657.480E-3	11.1543E-12	657.090E-3	657.480E-3	29.5165E-3	40.0140E-12	-926.816E-3	23.7237E-3
645.669E-3	10.9988E-12	645.291E-3	645.669E-3	-29.2285E-3	39.9430E-12	-947.023E-3	28.9289E-3
633.858E-3	10.9041E-12	633.484E-3	633.858E-3	21.6469E-3	40.0917E-12	-942.095E-3	23.5976E-3
622.047E-3	10.6865E-12	621.684E-3	622.047E-3	32.2729E-3	39.9280E-12	-930.078E-3	28.6980E-3
610.236E-3	10.5989E-12	609.923E-3	610.236E-3	30.3830E-3	40.0156E-12	-945.706E-3	25.5716E-3
598.425E-3	10.3602E-12	598.107E-3	598.425E-3	257.500E-3	40.0095E-12	-869.554E-3	28.1633E-3
586.614E-3	10.2476E-12	586.299E-3	586.614E-3	1.50052E-3	40.0376E-12	-920.270E-3	23.7134E-3
574.803E-3	10.1258E-12	574.477E-3	574.803E-3	75.0991E-3	40.0234E-12	-889.555E-3	26.2365E-3
562.992E-3	9.96110E-12	562.694E-3	562.992E-3	9.46638E-3	39.9798E-12	-918.105E-3	24.0701E-3
551.181E-3	9.86522E-12	550.878E-3	551.181E-3	34.0014E-3	39.9969E-12	-899.485E-3	27.5910E-3
539.370E-3	9.61072E-12	539.016E-3	539.370E-3	-170.551E-3	40.0852E-12	-977.277E-3	22.9896E-3
527.559E-3	9.42794E-12	527.229E-3	527.559E-3	-84.8851E-3	40.0332E-12	-976.708E-3	25.8825E-3
515.748E-3	9.28302E-12	515.398E-3	515.748E-3	27.2063E-3	40.0243E-12	-949.240E-3	23.8738E-3
503.937E-3	9.04876E-12	503.604E-3	503.937E-3	12.9654E-3	39.9354E-12	-942.807E-3	27.6530E-3
492.126E-3	8.85318E-12	491.775E-3	492.126E-3	-45.5739E-3	40.0814E-12	-959.007E-3	23.7231E-3
480.315E-3	8.62874E-12	479.972E-3	480.315E-3	-52.5854E-3	40.0112E-12	-968.500E-3	20.7994E-3
468.504E-3	8.46074E-12	468.181E-3	468.504E-3	87.3274E-3	39.9928E-12	-927.805E-3	26.5144E-3
456.693E-3	8.35361E-12	456.366E-3	456.693E-3	9.04305E-3	40.0825E-12	-948.594E-3	22.8015E-3
444.882E-3	8.07869E-12	444.599E-3	444.882E-3	-127.127E-3	39.9676E-12	-977.332E-3	23.2158E-3
433.071E-3	7.89296E-12	432.762E-3	433.071E-3	76.5518E-3	39.9878E-12	-911.252E-3	27.0344E-3
421.260E-3	7.75177E-12	420.950E-3	421.260E-3	-171.685E-3	40.0071E-12	-992.701E-3	25.9244E-3
409.449E-3	7.48756E-12	409.171E-3	409.449E-3	216.207E-3	39.8974E-12	-887.829E-3	29.1600E-3
397.638E-3	7.32673E-12	397.315E-3	397.638E-3	61.8211E-3	39.9633E-12	-893.991E-3	29.5237E-3
385.827E-3	7.23389E-12	385.568E-3	385.827E-3	-69.3333E-3	40.0227E-12	-946.036E-3	28.7557E-3
374.016E-3	6.96429E-12	373.719E-3	374.016E-3	41.2135E-3	40.1011E-12	-909.818E-3	22.2205E-3
362.205E-3	6.82577E-12	361.919E-3	362.205E-3	-147.242E-3	40.0140E-12	-993.341E-3	27.3071E-3
350.394E-3	6.69150E-12	350.173E-3	350.394E-3	15.5028E-3	39.9501E-12	-946.680E-3	28.4743E-3
338.583E-3	6.50010E-12	338.324E-3	338.583E-3	27.6378E-3	39.9868E-12	-938.493E-3	27.7632E-3
326.772E-3	6.35381E-12	326.535E-3	326.772E-3	25.0523E-3	39.9959E-12	-935.921E-3	25.0187E-3
314.961E-3	6.20098E-12	314.704E-3	314.961E-3	-57.1832E-3	40.0198E-12	-942.149E-3	24.7944E-3
303.150E-3	5.90909E-12	302.875E-3	303.150E-3	103.231E-3	39.9755E-12	-907.782E-3	24.6326E-3
291.339E-3	5.83136E-12	291.126E-3	291.339E-3	126.178E-3	40.0211E-12	-883.960E-3	26.5572E-3
279.528E-3	5.63641E-12	279.302E-3	279.528E-3	-99.7292E-3	39.8998E-12	-958.348E-3	27.7283E-3
267.717E-3	5.42495E-12	267.476E-3	267.717E-3	-32.6743E-3	39.9848E-12	-947.481E-3	28.8791E-3
255.906E-3	5.26194E-12	255.661E-3	255.906E-3	151.758E-3	39.9796E-12	-885.387E-3	26.7743E-3
244.094E-3	5.08399E-12	243.882E-3	244.094E-3	-119.302E-3	39.9698E-12	-977.041E-3	28.1872E-3
232.283E-3	4.91056E-12	232.035E-3	232.283E-3	-73.8831E-3	40.1075E-12	-994.999E-3	22.9202E-3
220.472E-3	4.65979E-12	220.203E-3	220.472E-3	-89.3904E-3	40.0692E-12	-1.01391E+0	25.5716E-3
208.661E-3	4.47364E-12	208.432E-3	208.661E-3	-82.0626E-3	39.9810E-12	-1.00385E+0	27.2340E-3
196.850E-3	4.22746E-12	196.594E-3	196.850E-3	166.119E-3	40.0327E-12	-920.657E-3	25.0058E-3
185.039E-3	4.03029E-12	184.824E-3	185.039E-3	-128.665E-3	39.9834E-12	-1.01141E+0	25.8465E-3
173.228E-3	3.81569E-12	173.016E-3	173.228E-3	-1.49900E-3	39.9949E-12	-966.341E-3	27.0114E-3
161.417E-3	3.62792E-12	161.185E-3	161.417E-3	46.0650E-3	39.9725E-12	-963.990E-3	25.3227E-3
149.606E-3	3.39178E-12	149.358E-3	149.606E-3	79.5997E-3	39.9966E-12	-963.880E-3	27.3649E-3
137.795E-3	3.11088E-12	137.561E-3	137.795E-3	-166.140E-3	40.0021E-12	-1.06240E+0	27.0782E-3
125.984E-3	2.89223E-12	125.793E-3	125.984E-3	155.075E-3	40.0683E-12	-980.559E-3	24.9545E-3
114.173E-3	2.61559E-12	113.958E-3	114.173E-3	102.268E-3	39.9619E-12	-960.710E-3	26.9239E-3
102.362E-3	2.31070E-12	102.160E-3	102.362E-3	-162.971E-3	40.0248E-12	-1.05469E+0	24.6069E-3
90.5512E-3	2.06193E-12	90.3452E-3	90.5512E-3	-82.0664E-3	39.9214E-12	-1.08315E+0	30.1924E-3
78.7402E-3	1.83325E-12	78.5119E-3	78.7402E-3	-43.7148E-3	40.0976E-12	-1.08822E+0	23.9520E-3
66.9291E-3	1.52534E-12	66.6402E-3	66.9291E-3	89.5142E-3	40.0018E-12	-1.02382E+0	25.4598E-3
55.1181E-3	1.26435E-12	54.8658E-3	55.1181E-3	-70.1334E-3	39.9632E-12	-1.06890E+0	26.4628E-3
43.3071E-3	969.372E-15	43.0422E-3	43.3071E-3	116.124E-3	39.9946E-12	-1.00190E+0	27.4119E-3
31.4961E-3	682.847E-15	31.2184E-3	31.4961E-3	-26.5494E-3	40.0509E-12	-1.04432E+0	25.3858E-3
19.6850E-3	373.386E-15	19.4246E-3	19.6850E-3	-90.4494E-3	39.9891E-12	-1.08625E+0	26.9718E-3
7.87402E-3	95.1017E-15	7.56765E-3	7.87402E-3	-36.4471E-3	39.9737E-12	-1.10216E+0	29.0275E-3
-3.93701E-3	-211.935E-15	-4.32651E-3	-3.93701E-3	179.993E-3	40.0050E-12	-1.03084E+0	27.8760E-3
-15.7480E-3	-522.951E-15	-16.1072E-3	-15.7480E-3	-243.144E-3	39.9193E-12	-1.15356E+0	26.9070E-3
-27.5591E-3	-835.832E-15	-27.9187E-3	-27.5591E-3	-57.6252E-3	40.0262E-12	-1.12027E+0	25.4557E-3
-39.3701E-3	-1.14625E-12	-39.6890E-3	-39.3701E-3	-31.0388E-3	40.0460E-12	-1.13531E+0	23.9541E-3
-51.1811E-3	-1.44702E-12	-51.5359E-3	-51.1811E-3	-12.1779E-3	40.0540E-12	-1.11091E+0	25.2736E-3
-62.9921E-3	-1.73053E-12	-63.3124E-3	-62.9921E-3	-120.475E-3	39.9509E-12	-1.16137E+0	30.1591E-3
-74.8032E-3	-1.96536E-12	-75.1508E-3	-74.8032E-3	-161.112E-3	40.0435E-12	-1.18373E+0	26.1017E-3
-86.6142E-3	-2.09622E-12	-87.0047E-3	-86.6142E-3	-22.9900E-3	40.0095E-12	-1.14230E+0	27.4867E-3
-98.4252E-3	-2.19862E-12	-98.7784E-3	-98.4252E-3	-62.7983E-3	40.0131E-12	-1.15413E+0	24.4876E-3
-110.236E-3	-2.31529E-12	-110.634E-3	-110.236E-3	-138.031E-3	40.0091E-12	-1.20385E+0	25.3848E-3
-122.047E-3	-2.41832E-12	-122.375E-3	-122.047E-3	46.5363E-3	39.9907E-12	-1.18565E+0	25.1468E-3
-133.858E-3	-2.58440E-12	-134.242E-3	-133.858E-3	64.7876E-3	39.9503E-12	-1.15216E+0	26.0701E-3
-145.669E-3	-2.75155E-12	-146.035E-3	-145.669E-3	-102.790E-3	40.0330E-12	-1.19809E+0	26.1120E-3
-157.480E-3	-2.89483E-12	-157.802E-3	-157.480E-3	-142.420E-3	39.9714E-12	-1.23137E+0	28.0089E-3
-169.291E-3	-3.02740E-12	-169.672E-3	-169.291E-3	-52.8829E-3	39.9988E-12	-1.23015E+0	25.2022E-3
-181.102E-3	-3.16782E-12	-181.421E-3	-181.102E-3	50.9103E-3	39.9554E-12	-1.20636E+0	28.3099E-3
-192.913E-3	-3.29433E-12	-193.225E-3	-192.913E-3	188.585E-3	39.9798E-12	-1.15019E+0	25.1401E-3
-204.724E-3	-3.42187E-12	-205.059E-3	-204.724E-3	-80.2231E-3	40.0149E-12	-1.20792E+0	29.3277E-3
-216.535E-3	-3.53575E-12	-216.856E-3	-216.535E-3	-218.067E-3	40.1142E-12	-1.28880E+0	24.0837E-3
-228.346E-3	-3.67634E-12	-228.676E-3	-228.346E-3	-69.2470E-3	39.9617E-12	-1.26703E+0	26.2116E-3
-240.157E-3	-3.81701E-12	-240.473E-3	-240.157E-3	37.8754E-3	39.9911E-12	-1.23689E+0	26.8736E-3
-251.969E-3	-3.93727E-12	-252.294E-3	-251.969E-3	84.5388E-3	40.0048E-12	-1.21874E+0	28.2857E-3
-263.780E-3	-4.08872E-12	-264.062E-3	-263.780E-3	-44.4724E-3	40.0083E-12	-1.25148E+0	26.2668E-3
-275.591E-3	-4.24318E-12	-275.867E-3	-275.591E-3	37.5220E-3	39.9868E-12	-1.23737E+0	27.4836E-3
-287.402E-3	-4.38360E-12	-287.709E-3	-287.402E-3	-94.4949E-3	39.9774E-12	-1.27943E+0	25.7906E-3
-299.213E-3	-4.58736E-12	-299.503E-3	-299.213E-3	-109.971E-3	40.0750E-12	-1.31606E+0	25.2862E-3
-311.024E-3	-4.71677E-12	-311.334E-3	-311.024E-3	-111.630E-3	40.0439E-12	-1.34437E+0	23.1591E-3
-322.835E-3	-4.77508E-12	-323.125E-3	-322.835E-3	-9.88232E-3	40.0069E-12	-1.33893E+0	27.4063E-3
-334.646E-3	-4.89505E-12	-334.898E-3	-334.646E-3	-59.5964E-3	39.9675E-12	-1.37491E+0	25.8994E-3
-346.457E-3	-5.04767E-12	-346.713E-3	-346.457E-3	-41.9474E-3	39.9233E-12	-1.38134E+0	30.7458E-3
-358.268E-3	-5.20340E-12	-358.555E-3	-358.268E-3	97.4771E-3	40.0324E-12	-1.32796E+0	25.6668E-3
-370.079E-3	-5.30828E-12	-370.349E-3	-370.079E-3	40.0077E-3	40.0012E-12	-1.32839E+0	26.7839E-3
-381.890E-3	-5.43567E-12	-382.118E-3	-381.890E-3	-153.555E-3	39.9870E-12	-1.39831E+0	27.2790E-3
-393.701E-3	-5.50578E-12	-393.996E-3	-393.701E-3	-72.8055E-3	40.0047E-12	-1.40253E+0	26.6732E-3
-405.512E-3	-5.63270E-12	-405.802E-3	-405.512E-3	-133.769E-3	39.8930E-12	-1.44187E+0	29.2274E-3
-417.323E-3	-5.80279E-12	-417.601E-3	-417.323E-3	5.71134E-3	39.9968E-12	-1.41899E+0	27.9513E-3
-429.134E-3	-5.96006E-12	-429.413E-3	-429.134E-3	-9.98116E-3	40.0603E-12	-1.45663E+0	23.6961E-3
-440.945E-3	-6.11626E-12	-441.220E-3	-440.945E-3	89.6869E-3	40.0303E-12	-1.42287E+0	25.8202E-3
-452.756E-3	-6.21539E-12	-453.026E-3	-452.756E-3	15.3695E-3	39.9743E-12	-1.45586E+0	26.6633E-3
-464.567E-3	-6.57211E-12	-464.845E-3	-464.567E-3	-19.6283E-3	39.9866E-12	-1.47357E+0	26.6297E-3
-476.378E-3	-6.72311E-12	-476.665E-3	-476.378E-3	30.7901E-3	39.9794E-12	-1.45581E+0	27.7538E-3
-488.189E-3	-7.09893E-12	-488.397E-3	-488.189E-3	-80.1499E-3	40.0852E-12	-1.51940E+0	21.4972E-3
-500.000E-3	-7.31407E-12	-500.237E-3	-500.000E-3	-148.668E-3	39.9284E-12	-1.55190E+0	29.2318E-3
