Experiment	bias spectroscopy	
Date	30.11.2015 22:49:24	
User		
X (m)	29.6034E-9	
Y (m)	-165.876E-9	
Z (m)	-3.75578E-9	
Z offset (m)	0E+0	
Settling time (s)	30E-3	
Integration time (s)	200E-3	
Z-Ctrl hold	TRUE	
Final Z (m)	-3.75578E-9	
Filter type	None	
Order		
Cutoff frq		
Current (A)	33.7796E-12	
Z (m)	-3.75578E-9	
Phase (deg)	304.394E-3	
Amplitude (m)	40.2691E-12	
Frequency Shift (Hz)	-706.761E-3	
Excitation (V)	17.6644E-3	

[DATA]
Bias calc (V)	Current (A)	Applied Voltage measured (V)	Bias (V)	Phase (deg)	Amplitude (m)	Frequency Shift (Hz)	Excitation (V)
1.00000E+0	33.8186E-12	999.330E-3	1.00000E+0	103.918E-3	40.0185E-12	-773.789E-3	24.4442E-3
988.189E-3	33.2556E-12	987.533E-3	988.189E-3	-74.5328E-3	39.9768E-12	-809.852E-3	25.5592E-3
976.378E-3	32.8784E-12	975.783E-3	976.378E-3	-61.8082E-3	39.9647E-12	-816.818E-3	25.2287E-3
964.567E-3	32.4072E-12	963.921E-3	964.567E-3	-66.2220E-3	39.9843E-12	-807.268E-3	28.0742E-3
952.756E-3	31.6483E-12	952.171E-3	952.756E-3	24.2380E-3	40.0206E-12	-791.742E-3	24.6899E-3
940.945E-3	31.1579E-12	940.330E-3	940.945E-3	129.663E-3	40.0196E-12	-760.176E-3	24.2136E-3
929.134E-3	30.9370E-12	928.511E-3	929.134E-3	125.208E-3	40.0007E-12	-738.259E-3	24.6912E-3
917.323E-3	30.3124E-12	916.757E-3	917.323E-3	93.2114E-3	39.9544E-12	-733.499E-3	29.4073E-3
905.512E-3	29.8741E-12	904.894E-3	905.512E-3	-96.4209E-3	39.9812E-12	-817.001E-3	26.4102E-3
893.701E-3	29.5672E-12	893.144E-3	893.701E-3	-108.803E-3	39.9423E-12	-826.954E-3	26.1036E-3
881.890E-3	28.9233E-12	881.311E-3	881.890E-3	193.993E-3	39.9942E-12	-702.244E-3	28.2844E-3
870.079E-3	28.4004E-12	869.502E-3	870.079E-3	5.57129E-3	40.0270E-12	-747.262E-3	25.3755E-3
858.268E-3	28.0131E-12	857.678E-3	858.268E-3	-165.982E-3	39.9693E-12	-829.722E-3	27.9756E-3
846.457E-3	28.0141E-12	845.848E-3	846.457E-3	4.78849E-3	40.0572E-12	-806.723E-3	23.6803E-3
834.646E-3	27.3047E-12	834.070E-3	834.646E-3	32.0969E-3	39.9490E-12	-797.019E-3	26.9193E-3
822.835E-3	26.7270E-12	822.260E-3	822.835E-3	-7.25728E-3	39.9927E-12	-782.953E-3	25.6958E-3
811.024E-3	26.2830E-12	810.433E-3	811.024E-3	24.0081E-3	40.0113E-12	-781.054E-3	26.2485E-3
799.213E-3	26.2480E-12	798.671E-3	799.213E-3	95.4132E-3	40.0199E-12	-750.240E-3	24.7126E-3
787.402E-3	25.5704E-12	786.833E-3	787.402E-3	74.7094E-3	40.0353E-12	-731.584E-3	22.5370E-3
775.591E-3	25.2316E-12	775.043E-3	775.591E-3	-37.5902E-3	40.0250E-12	-776.100E-3	24.5966E-3
763.780E-3	24.6966E-12	763.210E-3	763.780E-3	-25.9568E-3	39.9841E-12	-762.164E-3	28.1705E-3
751.969E-3	24.2883E-12	751.433E-3	751.969E-3	27.4153E-3	40.0085E-12	-745.893E-3	24.3173E-3
740.157E-3	23.8826E-12	739.630E-3	740.157E-3	-45.8238E-3	40.0227E-12	-757.250E-3	24.9569E-3
728.346E-3	23.5283E-12	727.799E-3	728.346E-3	-19.1897E-3	39.9652E-12	-755.017E-3	27.2085E-3
716.535E-3	23.2510E-12	716.013E-3	716.535E-3	48.8517E-3	40.0220E-12	-715.867E-3	26.2357E-3
704.724E-3	22.4634E-12	704.332E-3	704.724E-3	4.49523E-3	39.9696E-12	-725.559E-3	25.7845E-3
692.913E-3	22.2678E-12	692.534E-3	692.913E-3	-4.38886E-3	40.0118E-12	-734.099E-3	25.9423E-3
681.102E-3	21.5598E-12	680.764E-3	681.102E-3	7.32811E-3	39.8779E-12	-725.488E-3	29.3475E-3
669.291E-3	21.3486E-12	668.946E-3	669.291E-3	44.9160E-3	40.0922E-12	-722.702E-3	24.6849E-3
657.480E-3	20.8872E-12	657.100E-3	657.480E-3	-81.7596E-3	40.0240E-12	-755.990E-3	24.7435E-3
645.669E-3	20.3310E-12	645.288E-3	645.669E-3	50.4754E-3	39.9613E-12	-717.295E-3	26.8390E-3
633.858E-3	20.1643E-12	633.481E-3	633.858E-3	68.1412E-3	40.0679E-12	-696.088E-3	23.9787E-3
622.047E-3	19.8893E-12	621.686E-3	622.047E-3	-69.2397E-3	39.9357E-12	-733.048E-3	29.0053E-3
610.236E-3	19.2375E-12	609.917E-3	610.236E-3	-130.650E-3	40.0307E-12	-767.803E-3	26.0396E-3
598.425E-3	19.0022E-12	598.103E-3	598.425E-3	121.825E-3	40.0591E-12	-686.086E-3	22.5519E-3
586.614E-3	18.4668E-12	586.284E-3	586.614E-3	122.902E-3	39.9294E-12	-683.309E-3	26.0005E-3
574.803E-3	18.0723E-12	574.463E-3	574.803E-3	-19.7394E-3	39.9392E-12	-726.356E-3	28.7093E-3
562.992E-3	17.7626E-12	562.686E-3	562.992E-3	94.0867E-3	40.0099E-12	-706.549E-3	26.1424E-3
551.181E-3	17.2793E-12	550.866E-3	551.181E-3	-45.1538E-3	39.9420E-12	-745.444E-3	24.6617E-3
539.370E-3	16.8965E-12	539.004E-3	539.370E-3	2.69606E-3	40.0491E-12	-729.734E-3	26.2725E-3
527.559E-3	16.4409E-12	527.222E-3	527.559E-3	106.310E-3	40.0355E-12	-697.082E-3	24.7723E-3
515.748E-3	15.9589E-12	515.399E-3	515.748E-3	-19.9551E-3	40.0797E-12	-700.173E-3	23.7255E-3
503.937E-3	15.5523E-12	503.613E-3	503.937E-3	8.82437E-3	40.0068E-12	-710.083E-3	26.0335E-3
492.126E-3	15.1909E-12	491.785E-3	492.126E-3	-29.0426E-3	40.0330E-12	-728.873E-3	25.2440E-3
480.315E-3	14.8286E-12	479.975E-3	480.315E-3	85.4011E-3	39.9810E-12	-679.999E-3	24.3195E-3
468.504E-3	14.4072E-12	468.176E-3	468.504E-3	-44.2846E-3	39.9936E-12	-711.430E-3	29.1794E-3
456.693E-3	14.0413E-12	456.366E-3	456.693E-3	35.5085E-3	39.9862E-12	-704.413E-3	24.4796E-3
444.882E-3	13.5586E-12	444.599E-3	444.882E-3	-102.957E-3	39.9984E-12	-742.613E-3	25.6704E-3
433.071E-3	13.1662E-12	432.768E-3	433.071E-3	106.853E-3	39.9740E-12	-695.815E-3	25.7788E-3
421.260E-3	12.7325E-12	420.969E-3	421.260E-3	7.98866E-3	39.9239E-12	-718.137E-3	26.7662E-3
409.449E-3	12.4749E-12	409.179E-3	409.449E-3	75.7821E-3	40.0061E-12	-676.953E-3	26.7703E-3
397.638E-3	11.9688E-12	397.329E-3	397.638E-3	-89.2498E-3	40.0352E-12	-717.878E-3	25.8352E-3
385.827E-3	11.6345E-12	385.573E-3	385.827E-3	-5.75827E-3	40.0026E-12	-710.273E-3	26.5591E-3
374.016E-3	11.3455E-12	373.732E-3	374.016E-3	-142.617E-3	39.9935E-12	-747.640E-3	26.1854E-3
362.205E-3	10.9013E-12	361.927E-3	362.205E-3	-3.85845E-3	40.0324E-12	-703.887E-3	24.1684E-3
350.394E-3	10.5519E-12	350.181E-3	350.394E-3	7.78424E-3	40.0242E-12	-723.635E-3	26.4944E-3
338.583E-3	10.1435E-12	338.323E-3	338.583E-3	11.9397E-3	40.0229E-12	-709.610E-3	24.6848E-3
326.772E-3	9.67012E-12	326.535E-3	326.772E-3	-514.971E-6	39.9944E-12	-725.387E-3	27.6946E-3
314.961E-3	9.34721E-12	314.704E-3	314.961E-3	-26.4262E-3	39.9621E-12	-725.640E-3	26.8261E-3
303.150E-3	8.90924E-12	302.881E-3	303.150E-3	-34.0237E-3	39.9342E-12	-762.850E-3	28.7435E-3
291.339E-3	8.64085E-12	291.126E-3	291.339E-3	91.5386E-3	40.1055E-12	-717.602E-3	22.5355E-3
279.528E-3	8.22514E-12	279.293E-3	279.528E-3	-56.5094E-3	40.0030E-12	-752.594E-3	26.0957E-3
267.717E-3	7.87289E-12	267.477E-3	267.717E-3	18.1036E-3	40.0498E-12	-737.603E-3	26.0686E-3
255.906E-3	7.41700E-12	255.650E-3	255.906E-3	-28.0904E-3	39.9704E-12	-760.538E-3	26.3771E-3
244.094E-3	7.02327E-12	243.878E-3	244.094E-3	121.411E-3	40.0461E-12	-730.955E-3	26.9823E-3
232.283E-3	6.71904E-12	232.030E-3	232.283E-3	110.730E-3	39.9855E-12	-718.731E-3	29.1504E-3
220.472E-3	6.27939E-12	220.207E-3	220.472E-3	-51.1929E-3	39.9984E-12	-773.438E-3	26.0638E-3
208.661E-3	5.98941E-12	208.428E-3	208.661E-3	27.6663E-3	39.9978E-12	-742.671E-3	27.7812E-3
196.850E-3	5.56466E-12	196.600E-3	196.850E-3	-85.9431E-3	40.0631E-12	-773.127E-3	24.8821E-3
185.039E-3	5.17026E-12	184.833E-3	185.039E-3	21.2777E-3	39.9910E-12	-800.352E-3	26.0010E-3
173.228E-3	4.81826E-12	173.020E-3	173.228E-3	-122.527E-3	40.0445E-12	-804.052E-3	26.0854E-3
161.417E-3	4.38894E-12	161.185E-3	161.417E-3	32.0035E-3	39.9851E-12	-765.345E-3	24.6741E-3
149.606E-3	4.03948E-12	149.359E-3	149.606E-3	31.5141E-3	39.9432E-12	-775.682E-3	29.9550E-3
137.795E-3	3.63498E-12	137.575E-3	137.795E-3	13.1313E-3	40.0087E-12	-780.354E-3	25.3724E-3
125.984E-3	3.27532E-12	125.808E-3	125.984E-3	-194.999E-3	39.9920E-12	-845.532E-3	28.4590E-3
114.173E-3	2.91937E-12	113.965E-3	114.173E-3	159.347E-3	39.9926E-12	-736.894E-3	22.6756E-3
102.362E-3	2.52611E-12	102.166E-3	102.362E-3	-73.6777E-3	39.9569E-12	-799.586E-3	28.7246E-3
90.5512E-3	2.21003E-12	90.3534E-3	90.5512E-3	-49.7276E-3	40.0963E-12	-795.762E-3	24.2441E-3
78.7402E-3	1.85242E-12	78.5215E-3	78.7402E-3	-239.455E-3	39.9764E-12	-908.938E-3	28.0319E-3
66.9291E-3	1.53123E-12	66.6462E-3	66.9291E-3	70.4658E-3	39.9845E-12	-804.167E-3	26.1612E-3
55.1181E-3	1.21532E-12	54.8637E-3	55.1181E-3	-42.8390E-3	40.0043E-12	-849.380E-3	25.2236E-3
43.3071E-3	909.074E-15	43.0427E-3	43.3071E-3	-73.0178E-3	40.0384E-12	-855.175E-3	25.1210E-3
31.4961E-3	613.919E-15	31.2196E-3	31.4961E-3	-32.6222E-3	40.0073E-12	-865.544E-3	26.3900E-3
19.6850E-3	335.510E-15	19.4128E-3	19.6850E-3	109.383E-3	40.0149E-12	-821.082E-3	27.6594E-3
7.87402E-3	66.3986E-15	7.56458E-3	7.87402E-3	-93.9548E-3	40.0367E-12	-869.751E-3	23.7587E-3
-3.93701E-3	-220.150E-15	-4.32304E-3	-3.93701E-3	23.2049E-3	40.0002E-12	-852.395E-3	26.4649E-3
-15.7480E-3	-512.294E-15	-16.1052E-3	-15.7480E-3	-93.4208E-3	40.0391E-12	-910.569E-3	23.9848E-3
-27.5591E-3	-791.963E-15	-27.9195E-3	-27.5591E-3	97.5555E-3	39.9354E-12	-860.254E-3	28.4177E-3
-39.3701E-3	-1.06427E-12	-39.6786E-3	-39.3701E-3	-59.6002E-3	39.9542E-12	-888.261E-3	28.3976E-3
-51.1811E-3	-1.35157E-12	-51.5312E-3	-51.1811E-3	-50.6828E-3	40.0224E-12	-916.648E-3	28.4594E-3
-62.9921E-3	-1.63388E-12	-63.2958E-3	-62.9921E-3	56.5715E-3	40.0571E-12	-883.021E-3	29.1379E-3
-74.8032E-3	-1.81333E-12	-75.1404E-3	-74.8032E-3	-102.196E-3	40.0269E-12	-942.137E-3	26.5928E-3
-86.6142E-3	-1.97195E-12	-86.9942E-3	-86.6142E-3	11.3833E-3	40.0123E-12	-913.055E-3	25.6990E-3
-98.4252E-3	-2.11891E-12	-98.7678E-3	-98.4252E-3	93.2464E-3	40.0338E-12	-884.311E-3	25.9543E-3
-110.236E-3	-2.23514E-12	-110.624E-3	-110.236E-3	-51.4774E-3	40.0579E-12	-931.589E-3	22.3332E-3
-122.047E-3	-2.35293E-12	-122.367E-3	-122.047E-3	-6.54597E-6	39.9990E-12	-903.361E-3	26.8887E-3
-133.858E-3	-2.47941E-12	-134.227E-3	-133.858E-3	-216.158E-3	40.0112E-12	-1.00073E+0	27.6234E-3
-145.669E-3	-2.57686E-12	-146.025E-3	-145.669E-3	3.63344E-3	39.9161E-12	-951.443E-3	27.7786E-3
-157.480E-3	-2.65058E-12	-157.798E-3	-157.480E-3	-25.0429E-3	40.1108E-12	-972.714E-3	26.0347E-3
-169.291E-3	-2.76476E-12	-169.669E-3	-169.291E-3	-40.7489E-3	39.9297E-12	-988.457E-3	29.3153E-3
-181.102E-3	-2.87781E-12	-181.419E-3	-181.102E-3	-72.2739E-3	40.0442E-12	-1.00304E+0	27.4723E-3
-192.913E-3	-3.00117E-12	-193.228E-3	-192.913E-3	83.3114E-3	40.0227E-12	-950.393E-3	28.2342E-3
-204.724E-3	-3.07702E-12	-205.058E-3	-204.724E-3	-50.9971E-3	39.9502E-12	-985.814E-3	28.1237E-3
-216.535E-3	-3.24610E-12	-216.858E-3	-216.535E-3	101.660E-3	40.0279E-12	-945.448E-3	26.8811E-3
-228.346E-3	-3.31378E-12	-228.678E-3	-228.346E-3	-227.633E-3	39.9546E-12	-1.04595E+0	29.4045E-3
-240.157E-3	-3.40996E-12	-240.479E-3	-240.157E-3	-64.1067E-3	40.0219E-12	-1.03279E+0	27.3627E-3
-251.969E-3	-3.50420E-12	-252.295E-3	-251.969E-3	15.3242E-3	39.9897E-12	-1.00413E+0	27.8157E-3
-263.780E-3	-3.66901E-12	-264.062E-3	-263.780E-3	-126.696E-3	39.8683E-12	-1.07047E+0	31.3564E-3
-275.591E-3	-3.77395E-12	-275.868E-3	-275.591E-3	-36.1732E-3	40.0916E-12	-1.04642E+0	28.2987E-3
-287.402E-3	-3.90927E-12	-287.709E-3	-287.402E-3	-92.3801E-3	40.0178E-12	-1.07591E+0	27.9486E-3
-299.213E-3	-3.97856E-12	-299.503E-3	-299.213E-3	-91.2159E-3	39.9899E-12	-1.10620E+0	27.8526E-3
-311.024E-3	-4.11361E-12	-311.332E-3	-311.024E-3	52.7192E-3	40.0125E-12	-1.04828E+0	28.4192E-3
-322.835E-3	-4.20632E-12	-323.133E-3	-322.835E-3	-30.3526E-3	40.0268E-12	-1.06797E+0	26.5609E-3
-334.646E-3	-4.36112E-12	-334.909E-3	-334.646E-3	-48.2325E-3	39.9712E-12	-1.11163E+0	28.0138E-3
-346.457E-3	-4.45672E-12	-346.719E-3	-346.457E-3	21.7661E-3	40.0951E-12	-1.07527E+0	26.7492E-3
-358.268E-3	-4.51613E-12	-358.555E-3	-358.268E-3	-271.120E-3	39.9776E-12	-1.16640E+0	26.1810E-3
-370.079E-3	-4.64983E-12	-370.368E-3	-370.079E-3	54.1999E-3	39.9187E-12	-1.08544E+0	31.1730E-3
-381.890E-3	-4.79850E-12	-382.127E-3	-381.890E-3	88.3632E-3	40.0304E-12	-1.08744E+0	26.2545E-3
-393.701E-3	-4.94109E-12	-393.995E-3	-393.701E-3	-62.9086E-3	39.9901E-12	-1.14032E+0	27.0700E-3
-405.512E-3	-5.07680E-12	-405.799E-3	-405.512E-3	-66.7671E-3	40.0882E-12	-1.15074E+0	24.6081E-3
-417.323E-3	-5.14083E-12	-417.609E-3	-417.323E-3	64.1407E-3	39.9517E-12	-1.14247E+0	27.7454E-3
-429.134E-3	-5.22523E-12	-429.413E-3	-429.134E-3	-76.2626E-3	39.9176E-12	-1.19950E+0	30.5558E-3
-440.945E-3	-5.33976E-12	-441.220E-3	-440.945E-3	3.32801E-3	40.0258E-12	-1.19503E+0	29.1135E-3
-452.756E-3	-5.46509E-12	-453.022E-3	-452.756E-3	57.3936E-3	40.0615E-12	-1.17625E+0	25.8975E-3
-464.567E-3	-5.60248E-12	-464.845E-3	-464.567E-3	-81.5171E-3	40.0406E-12	-1.23370E+0	26.1351E-3
-476.378E-3	-5.63397E-12	-476.673E-3	-476.378E-3	-25.8097E-3	39.9844E-12	-1.24137E+0	25.4124E-3
-488.189E-3	-5.76785E-12	-488.411E-3	-488.189E-3	96.8826E-3	40.0271E-12	-1.20061E+0	26.0538E-3
-500.000E-3	-5.84068E-12	-500.247E-3	-500.000E-3	-164.011E-3	39.9910E-12	-1.28577E+0	28.4834E-3
