Experiment	bias spectroscopy	
Date	01.12.2015 01:05:44	
User		
X (m)	280.317E-9	
Y (m)	-138.88E-9	
Z (m)	-4.07703E-9	
Z offset (m)	0E+0	
Settling time (s)	30E-3	
Integration time (s)	200E-3	
Z-Ctrl hold	TRUE	
Final Z (m)	-4.07703E-9	
Filter type	None	
Order		
Cutoff frq		
Current (A)	18.0146E-12	
Z (m)	-4.07703E-9	
Phase (deg)	69.7837E-3	
Amplitude (m)	40.4447E-12	
Frequency Shift (Hz)	-1.23239E+0	
Excitation (V)	8.22444E-3	

[DATA]
Bias calc (V)	Current (A)	Applied Voltage measured (V)	Bias (V)	Phase (deg)	Amplitude (m)	Frequency Shift (Hz)	Excitation (V)
1.00000E+0	16.5724E-12	999.332E-3	1.00000E+0	-65.3617E-3	39.9306E-12	-1.27073E+0	27.7079E-3
988.189E-3	16.6478E-12	987.538E-3	988.189E-3	155.715E-3	40.0426E-12	-1.20171E+0	24.9928E-3
976.378E-3	16.3854E-12	975.769E-3	976.378E-3	40.7995E-3	40.0346E-12	-1.22736E+0	24.7967E-3
964.567E-3	16.1894E-12	963.909E-3	964.567E-3	15.9116E-3	40.0062E-12	-1.23932E+0	26.2338E-3
952.756E-3	15.9643E-12	952.152E-3	952.756E-3	-111.707E-3	39.9645E-12	-1.26389E+0	25.1171E-3
940.945E-3	16.0935E-12	940.325E-3	940.945E-3	29.2839E-3	40.0599E-12	-1.21464E+0	26.0884E-3
929.134E-3	15.7895E-12	928.503E-3	929.134E-3	14.1238E-3	40.0494E-12	-1.21592E+0	22.2075E-3
917.323E-3	15.7122E-12	916.741E-3	917.323E-3	106.642E-3	40.0251E-12	-1.16902E+0	25.7065E-3
905.512E-3	15.3267E-12	904.891E-3	905.512E-3	-35.8513E-3	39.9500E-12	-1.22433E+0	29.0968E-3
893.701E-3	15.5202E-12	893.131E-3	893.701E-3	-131.675E-3	40.0334E-12	-1.26734E+0	25.3685E-3
881.890E-3	15.1826E-12	881.287E-3	881.890E-3	176.790E-3	39.9623E-12	-1.16377E+0	28.5315E-3
870.079E-3	15.1359E-12	869.479E-3	870.079E-3	54.4904E-3	40.0634E-12	-1.15538E+0	24.8624E-3
858.268E-3	14.9529E-12	857.660E-3	858.268E-3	-9.07390E-3	39.9595E-12	-1.17661E+0	22.8067E-3
846.457E-3	14.8277E-12	845.826E-3	846.457E-3	224.772E-3	40.0470E-12	-1.11220E+0	25.7722E-3
834.646E-3	14.6797E-12	834.058E-3	834.646E-3	-135.286E-3	39.9965E-12	-1.21005E+0	25.0453E-3
822.835E-3	14.6595E-12	822.250E-3	822.835E-3	119.954E-3	40.0288E-12	-1.13684E+0	23.3711E-3
811.024E-3	14.4818E-12	810.418E-3	811.024E-3	93.8223E-3	39.9933E-12	-1.12478E+0	24.7812E-3
799.213E-3	14.1678E-12	798.644E-3	799.213E-3	68.7962E-3	39.9626E-12	-1.11211E+0	25.2129E-3
787.402E-3	14.0364E-12	786.812E-3	787.402E-3	-38.3673E-3	39.9461E-12	-1.15427E+0	25.9005E-3
775.591E-3	13.9314E-12	775.016E-3	775.591E-3	109.075E-3	40.0252E-12	-1.11159E+0	23.9962E-3
763.780E-3	13.9575E-12	763.192E-3	763.780E-3	-41.8938E-3	39.9906E-12	-1.15670E+0	27.2407E-3
751.969E-3	13.6165E-12	751.419E-3	751.969E-3	-41.0866E-3	39.9677E-12	-1.17373E+0	26.7174E-3
740.157E-3	13.5522E-12	739.615E-3	740.157E-3	206.099E-3	40.0522E-12	-1.08083E+0	24.9502E-3
728.346E-3	13.3536E-12	727.781E-3	728.346E-3	17.2190E-3	39.9929E-12	-1.13566E+0	26.0512E-3
716.535E-3	13.1243E-12	715.990E-3	716.535E-3	6.80783E-3	39.9807E-12	-1.11010E+0	25.1270E-3
704.724E-3	13.1003E-12	704.302E-3	704.724E-3	28.3430E-3	39.9980E-12	-1.13229E+0	24.4194E-3
692.913E-3	12.9762E-12	692.508E-3	692.913E-3	124.136E-3	40.0029E-12	-1.06346E+0	24.9622E-3
681.102E-3	12.9946E-12	680.741E-3	681.102E-3	33.4624E-3	40.0102E-12	-1.07186E+0	23.7490E-3
669.291E-3	12.8881E-12	668.921E-3	669.291E-3	45.3404E-3	40.0076E-12	-1.07444E+0	25.3990E-3
657.480E-3	12.5185E-12	657.078E-3	657.480E-3	25.5590E-6	40.0108E-12	-1.08718E+0	22.4227E-3
645.669E-3	12.4518E-12	645.274E-3	645.669E-3	52.6590E-3	39.9478E-12	-1.05038E+0	28.9141E-3
633.858E-3	12.2038E-12	633.462E-3	633.858E-3	-18.2291E-3	40.0281E-12	-1.08883E+0	25.2869E-3
622.047E-3	11.9603E-12	621.662E-3	622.047E-3	46.1269E-3	40.0016E-12	-1.05857E+0	27.5760E-3
610.236E-3	11.7960E-12	609.894E-3	610.236E-3	117.739E-3	39.9620E-12	-1.04569E+0	27.3825E-3
598.425E-3	11.5882E-12	598.085E-3	598.425E-3	-112.271E-3	40.0014E-12	-1.13024E+0	25.6390E-3
586.614E-3	11.5087E-12	586.276E-3	586.614E-3	111.099E-3	39.9724E-12	-1.04553E+0	28.8465E-3
574.803E-3	11.4371E-12	574.465E-3	574.803E-3	67.9820E-3	40.0144E-12	-1.03811E+0	26.0990E-3
562.992E-3	11.1463E-12	562.677E-3	562.992E-3	-62.6365E-3	39.9415E-12	-1.10207E+0	28.1954E-3
551.181E-3	11.0479E-12	550.863E-3	551.181E-3	66.1602E-3	40.0638E-12	-1.06137E+0	27.1770E-3
539.370E-3	10.8470E-12	538.993E-3	539.370E-3	49.9132E-3	39.9416E-12	-1.08276E+0	27.0713E-3
527.559E-3	10.5528E-12	527.217E-3	527.559E-3	13.2271E-3	39.9589E-12	-1.07756E+0	27.2562E-3
515.748E-3	10.3946E-12	515.385E-3	515.748E-3	-106.784E-3	39.9822E-12	-1.11920E+0	28.7358E-3
503.937E-3	10.3615E-12	503.589E-3	503.937E-3	-76.4910E-3	40.0036E-12	-1.09626E+0	25.7609E-3
492.126E-3	10.1192E-12	491.765E-3	492.126E-3	75.7819E-3	40.0708E-12	-1.05720E+0	26.3846E-3
480.315E-3	9.90015E-12	479.950E-3	480.315E-3	-2.64732E-3	39.9937E-12	-1.07339E+0	23.8684E-3
468.504E-3	9.81105E-12	468.159E-3	468.504E-3	71.6598E-3	40.0038E-12	-1.03486E+0	26.1928E-3
456.693E-3	9.53450E-12	456.348E-3	456.693E-3	89.9275E-3	39.9107E-12	-1.02590E+0	27.0241E-3
444.882E-3	9.42529E-12	444.585E-3	444.882E-3	87.5628E-3	40.1184E-12	-1.01714E+0	24.0814E-3
433.071E-3	8.90453E-12	432.751E-3	433.071E-3	47.1372E-3	39.9580E-12	-1.01490E+0	26.2765E-3
421.260E-3	8.89077E-12	420.935E-3	421.260E-3	-111.810E-3	40.0027E-12	-1.08987E+0	24.7000E-3
409.449E-3	8.76167E-12	409.160E-3	409.449E-3	52.1735E-3	40.0239E-12	-1.04713E+0	24.9331E-3
397.638E-3	8.50371E-12	397.313E-3	397.638E-3	106.668E-3	39.9709E-12	-1.03218E+0	25.6290E-3
385.827E-3	8.30431E-12	385.550E-3	385.827E-3	37.3085E-3	40.0308E-12	-1.03909E+0	24.5497E-3
374.016E-3	8.15652E-12	373.708E-3	374.016E-3	17.6516E-3	40.0069E-12	-1.04203E+0	26.0146E-3
362.205E-3	7.87082E-12	361.908E-3	362.205E-3	-28.5891E-3	39.8837E-12	-1.06045E+0	29.0472E-3
350.394E-3	7.62693E-12	350.150E-3	350.394E-3	-210.379E-3	40.0119E-12	-1.13527E+0	28.2719E-3
338.583E-3	7.46216E-12	338.299E-3	338.583E-3	37.2335E-3	40.0406E-12	-1.08261E+0	25.8787E-3
326.772E-3	7.22973E-12	326.515E-3	326.772E-3	180.167E-3	40.0165E-12	-1.01151E+0	23.6147E-3
314.961E-3	7.01927E-12	314.671E-3	314.961E-3	-1.70035E-3	39.9638E-12	-1.04991E+0	27.0283E-3
303.150E-3	6.74477E-12	302.843E-3	303.150E-3	11.5826E-3	39.9640E-12	-1.05153E+0	30.1967E-3
291.339E-3	6.53693E-12	291.092E-3	291.339E-3	23.5348E-3	39.9957E-12	-1.07079E+0	25.4133E-3
279.528E-3	6.30467E-12	279.269E-3	279.528E-3	108.753E-3	40.0878E-12	-1.01871E+0	25.1129E-3
267.717E-3	6.02149E-12	267.456E-3	267.717E-3	-68.3958E-3	39.9548E-12	-1.06922E+0	28.3177E-3
255.906E-3	5.71908E-12	255.628E-3	255.906E-3	25.2150E-3	39.9683E-12	-1.03682E+0	25.9091E-3
244.094E-3	5.55490E-12	243.861E-3	244.094E-3	-161.951E-3	39.9568E-12	-1.09693E+0	28.0261E-3
232.283E-3	5.25830E-12	232.007E-3	232.283E-3	-79.5748E-3	40.0169E-12	-1.11827E+0	27.4375E-3
220.472E-3	5.06234E-12	220.186E-3	220.472E-3	41.9259E-3	39.9552E-12	-1.08546E+0	25.3236E-3
208.661E-3	4.77896E-12	208.405E-3	208.661E-3	178.772E-3	39.9869E-12	-1.02592E+0	27.0914E-3
196.850E-3	4.47820E-12	196.565E-3	196.850E-3	71.9618E-3	39.9888E-12	-1.03614E+0	26.1139E-3
185.039E-3	4.26053E-12	184.802E-3	185.039E-3	-87.4580E-3	40.0204E-12	-1.09116E+0	25.3512E-3
173.228E-3	3.99470E-12	172.990E-3	173.228E-3	-113.348E-3	39.9654E-12	-1.12651E+0	23.8000E-3
161.417E-3	3.68182E-12	161.157E-3	161.417E-3	-13.3192E-3	40.0230E-12	-1.08339E+0	25.1125E-3
149.606E-3	3.43320E-12	149.329E-3	149.606E-3	-92.3562E-3	40.0344E-12	-1.11951E+0	24.8031E-3
137.795E-3	3.13384E-12	137.536E-3	137.795E-3	23.3351E-3	39.9310E-12	-1.10531E+0	28.3470E-3
125.984E-3	2.90241E-12	125.770E-3	125.984E-3	-74.6795E-3	40.0024E-12	-1.14200E+0	28.2726E-3
114.173E-3	2.60740E-12	113.938E-3	114.173E-3	-87.8720E-3	40.0316E-12	-1.13677E+0	24.5634E-3
102.362E-3	2.31551E-12	102.134E-3	102.362E-3	77.5911E-3	39.9900E-12	-1.09054E+0	23.5539E-3
90.5512E-3	2.06033E-12	90.3361E-3	90.5512E-3	-140.179E-3	40.0434E-12	-1.18943E+0	25.8409E-3
78.7402E-3	1.77032E-12	78.4995E-3	78.7402E-3	-62.9462E-6	39.9064E-12	-1.14483E+0	27.8436E-3
66.9291E-3	1.49609E-12	66.6324E-3	66.9291E-3	54.2015E-3	39.9922E-12	-1.13612E+0	24.0965E-3
55.1181E-3	1.23248E-12	54.8592E-3	55.1181E-3	9.21790E-3	39.9090E-12	-1.15038E+0	29.1895E-3
43.3071E-3	953.340E-15	43.0398E-3	43.3071E-3	-61.8940E-3	39.9746E-12	-1.17322E+0	25.5190E-3
31.4961E-3	667.998E-15	31.2066E-3	31.4961E-3	70.3877E-3	40.0745E-12	-1.13381E+0	24.0923E-3
19.6850E-3	389.031E-15	19.4118E-3	19.6850E-3	-221.499E-3	39.9561E-12	-1.23634E+0	27.2956E-3
7.87402E-3	93.1171E-15	7.55417E-3	7.87402E-3	49.4996E-3	40.1049E-12	-1.15376E+0	24.3009E-3
-3.93701E-3	-231.881E-15	-4.33368E-3	-3.93701E-3	-143.873E-3	39.9789E-12	-1.22648E+0	25.4927E-3
-15.7480E-3	-549.249E-15	-16.1194E-3	-15.7480E-3	92.3864E-3	39.9820E-12	-1.15283E+0	27.7137E-3
-27.5591E-3	-854.002E-15	-27.9314E-3	-27.5591E-3	525.234E-6	39.9804E-12	-1.17886E+0	26.3525E-3
-39.3701E-3	-1.12633E-12	-39.6961E-3	-39.3701E-3	-119.687E-3	40.0177E-12	-1.21733E+0	25.2486E-3
-51.1811E-3	-1.43656E-12	-51.5594E-3	-51.1811E-3	-39.8020E-3	39.9725E-12	-1.19669E+0	26.9388E-3
-62.9921E-3	-1.73208E-12	-63.3328E-3	-62.9921E-3	38.0234E-3	40.0224E-12	-1.18408E+0	26.4106E-3
-74.8032E-3	-1.95870E-12	-75.1628E-3	-74.8032E-3	63.3817E-3	40.0493E-12	-1.19422E+0	22.8504E-3
-86.6142E-3	-2.12054E-12	-87.0239E-3	-86.6142E-3	-29.3129E-3	39.9759E-12	-1.22177E+0	27.8935E-3
-98.4252E-3	-2.23669E-12	-98.7950E-3	-98.4252E-3	65.9286E-3	40.0490E-12	-1.18258E+0	25.8080E-3
-110.236E-3	-2.34872E-12	-110.646E-3	-110.236E-3	28.2822E-3	39.9862E-12	-1.18377E+0	24.5577E-3
-122.047E-3	-2.47946E-12	-122.389E-3	-122.047E-3	-88.0559E-3	40.0271E-12	-1.25068E+0	24.4928E-3
-133.858E-3	-2.57663E-12	-134.242E-3	-133.858E-3	-133.483E-3	39.9961E-12	-1.28053E+0	22.6908E-3
-145.669E-3	-2.75100E-12	-146.042E-3	-145.669E-3	-111.964E-3	39.9664E-12	-1.29489E+0	27.2978E-3
-157.480E-3	-2.79687E-12	-157.817E-3	-157.480E-3	-43.7571E-3	39.9470E-12	-1.29584E+0	28.0742E-3
-169.291E-3	-2.95325E-12	-169.692E-3	-169.291E-3	-1.23676E-3	40.0266E-12	-1.28807E+0	27.6365E-3
-181.102E-3	-3.08295E-12	-181.444E-3	-181.102E-3	24.8840E-3	40.0249E-12	-1.24925E+0	27.0342E-3
-192.913E-3	-3.21452E-12	-193.249E-3	-192.913E-3	21.4170E-3	40.0293E-12	-1.27482E+0	24.5115E-3
-204.724E-3	-3.28572E-12	-205.086E-3	-204.724E-3	-39.4857E-3	39.9220E-12	-1.29189E+0	28.6246E-3
-216.535E-3	-3.42375E-12	-216.889E-3	-216.535E-3	-196.030E-3	40.0987E-12	-1.35197E+0	25.9764E-3
-228.346E-3	-3.61506E-12	-228.710E-3	-228.346E-3	101.821E-3	40.0082E-12	-1.27738E+0	25.4279E-3
-240.157E-3	-3.73156E-12	-240.504E-3	-240.157E-3	-20.3892E-3	40.0368E-12	-1.30638E+0	28.4063E-3
-251.969E-3	-3.85639E-12	-252.324E-3	-251.969E-3	-90.9985E-3	39.9495E-12	-1.34118E+0	30.2169E-3
-263.780E-3	-4.03106E-12	-264.085E-3	-263.780E-3	-146.438E-3	40.0693E-12	-1.35917E+0	25.1105E-3
-275.591E-3	-4.19647E-12	-275.897E-3	-275.591E-3	96.6413E-3	40.0049E-12	-1.30634E+0	26.0951E-3
-287.402E-3	-4.34738E-12	-287.743E-3	-287.402E-3	-127.994E-3	39.9884E-12	-1.39720E+0	30.0089E-3
-299.213E-3	-4.48817E-12	-299.533E-3	-299.213E-3	144.583E-3	40.0599E-12	-1.32235E+0	23.2256E-3
-311.024E-3	-4.65939E-12	-311.361E-3	-311.024E-3	-105.110E-3	39.9730E-12	-1.40400E+0	26.8741E-3
-322.835E-3	-4.68817E-12	-323.149E-3	-322.835E-3	104.360E-3	40.0037E-12	-1.36126E+0	26.1545E-3
-334.646E-3	-4.83785E-12	-334.920E-3	-334.646E-3	11.4539E-3	39.9542E-12	-1.38263E+0	27.3885E-3
-346.457E-3	-4.94395E-12	-346.736E-3	-346.457E-3	-30.1053E-3	40.0326E-12	-1.40219E+0	25.9402E-3
-358.268E-3	-5.08983E-12	-358.572E-3	-358.268E-3	-25.0593E-3	40.0347E-12	-1.40688E+0	27.1690E-3
-370.079E-3	-5.22193E-12	-370.364E-3	-370.079E-3	-147.692E-3	40.0126E-12	-1.43851E+0	26.7216E-3
-381.890E-3	-5.34262E-12	-382.140E-3	-381.890E-3	-76.4949E-3	39.9850E-12	-1.45822E+0	28.2253E-3
-393.701E-3	-5.45919E-12	-394.018E-3	-393.701E-3	-137.885E-3	40.0319E-12	-1.47079E+0	26.2392E-3
-405.512E-3	-5.54997E-12	-405.827E-3	-405.512E-3	-18.5131E-3	39.9713E-12	-1.46535E+0	25.5155E-3
-417.323E-3	-5.73472E-12	-417.630E-3	-417.323E-3	-87.9691E-3	39.9863E-12	-1.51035E+0	26.8944E-3
-429.134E-3	-5.91964E-12	-429.434E-3	-429.134E-3	-78.8355E-3	40.1237E-12	-1.50454E+0	22.4541E-3
-440.945E-3	-6.01611E-12	-441.241E-3	-440.945E-3	-22.9694E-3	40.0348E-12	-1.50962E+0	26.0457E-3
-452.756E-3	-6.19252E-12	-453.049E-3	-452.756E-3	-38.1082E-3	40.0240E-12	-1.52169E+0	25.7774E-3
-464.567E-3	-6.36909E-12	-464.875E-3	-464.567E-3	-140.943E-3	39.9370E-12	-1.57864E+0	28.7793E-3
-476.378E-3	-6.63106E-12	-476.710E-3	-476.378E-3	76.8218E-3	40.0352E-12	-1.52417E+0	27.4798E-3
-488.189E-3	-6.86825E-12	-488.429E-3	-488.189E-3	-32.1064E-3	40.0089E-12	-1.54211E+0	25.6532E-3
-500.000E-3	-7.11562E-12	-500.268E-3	-500.000E-3	-169.366E-3	39.9685E-12	-1.61634E+0	27.1895E-3
