Experiment	bias spectroscopy	
Date	01.12.2015 02:06:00	
User		
X (m)	281.08E-9	
Y (m)	-139.453E-9	
Z (m)	-4.07703E-9	
Z offset (m)	0E+0	
Settling time (s)	30E-3	
Integration time (s)	200E-3	
Z-Ctrl hold	TRUE	
Final Z (m)	-4.07703E-9	
Filter type	None	
Order		
Cutoff frq		
Current (A)	52.646E-12	
Z (m)	-4.07703E-9	
Phase (deg)	-418.118E-3	
Amplitude (m)	39.8084E-12	
Frequency Shift (Hz)	-1.25706E+0	
Excitation (V)	36.2318E-3	

[DATA]
Bias calc (V)	Current (A)	Applied Voltage measured (V)	Bias (V)	Phase (deg)	Amplitude (m)	Frequency Shift (Hz)	Excitation (V)
1.00000E+0	51.9716E-12	999.341E-3	1.00000E+0	14.0698E-3	39.9617E-12	-1.11032E+0	26.4945E-3
988.189E-3	51.6084E-12	987.550E-3	988.189E-3	-14.5026E-3	40.0883E-12	-1.10515E+0	22.9790E-3
976.378E-3	51.2495E-12	975.778E-3	976.378E-3	30.7289E-3	40.0037E-12	-1.05572E+0	24.9736E-3
964.567E-3	50.4889E-12	963.912E-3	964.567E-3	4.03665E-3	39.9646E-12	-1.06792E+0	25.5295E-3
952.756E-3	49.5343E-12	952.150E-3	952.756E-3	-64.3300E-3	39.9619E-12	-1.09462E+0	25.5753E-3
940.945E-3	49.2429E-12	940.312E-3	940.945E-3	-46.2023E-3	40.0736E-12	-1.09657E+0	23.0037E-3
929.134E-3	48.6953E-12	928.492E-3	929.134E-3	36.8456E-3	39.9904E-12	-1.05430E+0	26.0844E-3
917.323E-3	48.2923E-12	916.748E-3	917.323E-3	19.6106E-3	39.9773E-12	-1.07480E+0	25.9117E-3
905.512E-3	47.6246E-12	904.883E-3	905.512E-3	162.296E-3	39.9784E-12	-1.02485E+0	24.4973E-3
893.701E-3	47.3565E-12	893.129E-3	893.701E-3	153.259E-3	40.0148E-12	-995.388E-3	25.2245E-3
881.890E-3	46.6035E-12	881.281E-3	881.890E-3	-17.8693E-3	40.0091E-12	-1.03626E+0	22.1158E-3
870.079E-3	46.2121E-12	869.475E-3	870.079E-3	2.93236E-3	40.0673E-12	-1.04080E+0	22.3329E-3
858.268E-3	44.6835E-12	857.661E-3	858.268E-3	5.04696E-3	39.9235E-12	-1.05629E+0	25.7970E-3
846.457E-3	44.8872E-12	845.828E-3	846.457E-3	289.418E-3	40.0098E-12	-945.437E-3	24.4303E-3
834.646E-3	43.9849E-12	834.049E-3	834.646E-3	74.2617E-3	39.9902E-12	-978.762E-3	28.1051E-3
822.835E-3	43.9540E-12	822.242E-3	822.835E-3	27.2377E-3	40.0018E-12	-1.01591E+0	26.6030E-3
811.024E-3	43.2186E-12	810.418E-3	811.024E-3	45.1010E-3	40.0293E-12	-1.01400E+0	24.8174E-3
799.213E-3	42.6034E-12	798.641E-3	799.213E-3	9.20711E-3	40.0252E-12	-1.04357E+0	23.7387E-3
787.402E-3	41.8780E-12	786.818E-3	787.402E-3	-27.4749E-3	39.9345E-12	-1.06326E+0	27.5998E-3
775.591E-3	41.3553E-12	775.030E-3	775.591E-3	-55.3527E-3	40.0161E-12	-1.06357E+0	23.8855E-3
763.780E-3	40.9530E-12	763.203E-3	763.780E-3	75.7454E-3	39.9569E-12	-1.00195E+0	27.2895E-3
751.969E-3	40.1620E-12	751.432E-3	751.969E-3	-141.408E-3	40.0103E-12	-1.08113E+0	23.7274E-3
740.157E-3	39.7125E-12	739.630E-3	740.157E-3	-56.1062E-3	40.0651E-12	-1.05033E+0	23.7332E-3
728.346E-3	38.7642E-12	727.784E-3	728.346E-3	-170.729E-3	39.9305E-12	-1.09065E+0	26.1264E-3
716.535E-3	38.3099E-12	715.995E-3	716.535E-3	-19.8893E-3	39.9937E-12	-1.06123E+0	23.3308E-3
704.724E-3	37.6845E-12	704.312E-3	704.724E-3	-31.6899E-3	39.9497E-12	-1.04784E+0	25.9470E-3
692.913E-3	37.2086E-12	692.515E-3	692.913E-3	125.051E-3	39.9857E-12	-960.555E-3	25.4493E-3
681.102E-3	36.6655E-12	680.743E-3	681.102E-3	-87.4635E-3	39.9478E-12	-1.01843E+0	25.8432E-3
669.291E-3	35.7304E-12	668.917E-3	669.291E-3	34.8804E-3	40.0314E-12	-992.184E-3	25.0889E-3
657.480E-3	35.3427E-12	657.078E-3	657.480E-3	6.85623E-3	40.0007E-12	-1.00579E+0	27.9149E-3
645.669E-3	35.1750E-12	645.273E-3	645.669E-3	73.2080E-3	39.9753E-12	-990.995E-3	25.6398E-3
633.858E-3	34.0083E-12	633.471E-3	633.858E-3	69.0466E-3	40.0720E-12	-982.150E-3	25.0603E-3
622.047E-3	33.4277E-12	621.660E-3	622.047E-3	-28.8017E-3	40.0627E-12	-1.02182E+0	23.2575E-3
610.236E-3	33.1528E-12	609.889E-3	610.236E-3	10.5328E-3	40.0473E-12	-1.01801E+0	21.2495E-3
598.425E-3	32.2165E-12	598.082E-3	598.425E-3	-117.014E-3	39.9099E-12	-1.06448E+0	25.0154E-3
586.614E-3	31.6593E-12	586.282E-3	586.614E-3	-26.3885E-3	40.0471E-12	-1.04399E+0	21.6524E-3
574.803E-3	31.2317E-12	574.458E-3	574.803E-3	82.7954E-3	39.9833E-12	-1.02858E+0	24.6999E-3
562.992E-3	30.6084E-12	562.671E-3	562.992E-3	217.213E-3	40.0032E-12	-939.910E-3	28.0443E-3
551.181E-3	29.9684E-12	550.862E-3	551.181E-3	64.1831E-3	40.0410E-12	-959.769E-3	22.7983E-3
539.370E-3	29.3188E-12	538.992E-3	539.370E-3	-29.5584E-3	40.0071E-12	-991.270E-3	22.1359E-3
527.559E-3	28.6188E-12	527.208E-3	527.559E-3	-81.8992E-3	39.9609E-12	-1.04166E+0	25.4089E-3
515.748E-3	27.6052E-12	515.383E-3	515.748E-3	-6.80909E-3	40.0016E-12	-1.01047E+0	24.8135E-3
503.937E-3	27.1951E-12	503.598E-3	503.937E-3	85.5757E-3	40.0041E-12	-970.481E-3	25.2340E-3
492.126E-3	26.7854E-12	491.763E-3	492.126E-3	-102.855E-3	39.9764E-12	-1.03427E+0	27.0887E-3
480.315E-3	25.9023E-12	479.966E-3	480.315E-3	128.076E-3	40.0241E-12	-962.821E-3	25.0766E-3
468.504E-3	25.2135E-12	468.171E-3	468.504E-3	-151.646E-3	40.0471E-12	-1.05153E+0	24.6229E-3
456.693E-3	24.6871E-12	456.356E-3	456.693E-3	49.5123E-3	40.0226E-12	-989.057E-3	24.8595E-3
444.882E-3	24.0750E-12	444.586E-3	444.882E-3	-24.0752E-3	39.9805E-12	-1.03565E+0	26.1204E-3
433.071E-3	23.2701E-12	432.754E-3	433.071E-3	1.64037E-3	40.0014E-12	-1.02522E+0	26.1600E-3
421.260E-3	22.3973E-12	420.952E-3	421.260E-3	144.920E-3	39.8906E-12	-961.041E-3	30.0554E-3
409.449E-3	21.9549E-12	409.169E-3	409.449E-3	146.353E-3	40.0540E-12	-948.302E-3	24.1509E-3
397.638E-3	21.0615E-12	397.324E-3	397.638E-3	-128.282E-3	39.9583E-12	-1.02217E+0	26.8175E-3
385.827E-3	20.5120E-12	385.569E-3	385.827E-3	15.1439E-3	39.9792E-12	-996.175E-3	28.0289E-3
374.016E-3	19.9816E-12	373.724E-3	374.016E-3	-7.03954E-3	39.9742E-12	-1.01962E+0	26.8977E-3
362.205E-3	19.1085E-12	361.931E-3	362.205E-3	-56.4047E-3	39.9951E-12	-1.03918E+0	25.3054E-3
350.394E-3	18.8094E-12	350.176E-3	350.394E-3	9.54126E-3	39.9931E-12	-1.03724E+0	25.3074E-3
338.583E-3	18.1512E-12	338.315E-3	338.583E-3	-6.84030E-3	40.0456E-12	-1.06108E+0	26.1029E-3
326.772E-3	17.1593E-12	326.535E-3	326.772E-3	102.595E-3	39.9916E-12	-1.02727E+0	27.2244E-3
314.961E-3	16.7624E-12	314.693E-3	314.961E-3	-89.6845E-3	40.0158E-12	-1.08233E+0	26.2489E-3
303.150E-3	16.1579E-12	302.876E-3	303.150E-3	8.97241E-3	40.0351E-12	-1.06696E+0	25.7494E-3
291.339E-3	15.4908E-12	291.123E-3	291.339E-3	-34.5466E-3	40.0503E-12	-1.07532E+0	23.9194E-3
279.528E-3	14.7699E-12	279.289E-3	279.528E-3	183.616E-3	39.9581E-12	-987.258E-3	25.7859E-3
267.717E-3	14.2397E-12	267.481E-3	267.717E-3	-115.320E-3	40.0343E-12	-1.08681E+0	22.8150E-3
255.906E-3	13.5650E-12	255.656E-3	255.906E-3	174.034E-3	39.9481E-12	-1.00830E+0	26.1710E-3
244.094E-3	12.9415E-12	243.884E-3	244.094E-3	-157.915E-3	40.0695E-12	-1.09491E+0	25.5492E-3
232.283E-3	12.2143E-12	232.026E-3	232.283E-3	56.3258E-3	39.9733E-12	-1.06254E+0	26.7653E-3
220.472E-3	11.5592E-12	220.189E-3	220.472E-3	50.1146E-3	40.0382E-12	-1.05437E+0	25.7927E-3
208.661E-3	10.9394E-12	208.403E-3	208.661E-3	58.7910E-3	39.9701E-12	-1.06179E+0	27.0863E-3
196.850E-3	10.4182E-12	196.582E-3	196.850E-3	18.1634E-3	40.0732E-12	-1.07301E+0	25.0366E-3
185.039E-3	9.66859E-12	184.811E-3	185.039E-3	6.61667E-3	39.9885E-12	-1.09107E+0	26.8332E-3
173.228E-3	9.04074E-12	172.996E-3	173.228E-3	-24.6841E-3	39.9886E-12	-1.08956E+0	28.9882E-3
161.417E-3	8.35629E-12	161.168E-3	161.417E-3	34.5635E-3	40.0007E-12	-1.07908E+0	24.9855E-3
149.606E-3	7.80185E-12	149.339E-3	149.606E-3	18.7030E-3	40.0370E-12	-1.07503E+0	25.3862E-3
137.795E-3	7.06024E-12	137.550E-3	137.795E-3	-5.42480E-3	39.9683E-12	-1.08788E+0	25.8626E-3
125.984E-3	6.50713E-12	125.784E-3	125.984E-3	51.5225E-3	40.0441E-12	-1.07710E+0	24.2580E-3
114.173E-3	5.76902E-12	113.951E-3	114.173E-3	-69.6767E-3	40.0019E-12	-1.13948E+0	24.7017E-3
102.362E-3	5.17446E-12	102.147E-3	102.362E-3	-3.06394E-3	39.9921E-12	-1.12030E+0	25.4558E-3
90.5512E-3	4.51486E-12	90.3446E-3	90.5512E-3	-32.2977E-3	39.9925E-12	-1.13754E+0	27.7948E-3
78.7402E-3	3.91912E-12	78.5067E-3	78.7402E-3	2.62732E-3	39.9597E-12	-1.12589E+0	26.3727E-3
66.9291E-3	3.36267E-12	66.6432E-3	66.9291E-3	46.9249E-3	40.0569E-12	-1.10866E+0	24.1389E-3
55.1181E-3	2.73957E-12	54.8727E-3	55.1181E-3	-155.575E-3	40.0324E-12	-1.20486E+0	26.5810E-3
43.3071E-3	2.09347E-12	43.0452E-3	43.3071E-3	-34.6998E-3	39.9794E-12	-1.19892E+0	29.2792E-3
31.4961E-3	1.47765E-12	31.2270E-3	31.4961E-3	3.17213E-3	39.9895E-12	-1.19587E+0	27.4768E-3
19.6850E-3	835.803E-15	19.4267E-3	19.6850E-3	5.22717E-3	39.9551E-12	-1.19284E+0	27.2220E-3
7.87402E-3	263.956E-15	7.56659E-3	7.87402E-3	-34.0593E-3	39.9607E-12	-1.20514E+0	28.0731E-3
-3.93701E-3	-294.564E-15	-4.32287E-3	-3.93701E-3	-64.7246E-3	39.9876E-12	-1.20100E+0	26.5242E-3
-15.7480E-3	-869.437E-15	-16.1036E-3	-15.7480E-3	-13.9790E-3	40.0290E-12	-1.22133E+0	24.6038E-3
-27.5591E-3	-1.44406E-12	-27.9135E-3	-27.5591E-3	-82.4001E-3	39.9095E-12	-1.23014E+0	29.5849E-3
-39.3701E-3	-2.04192E-12	-39.6757E-3	-39.3701E-3	-29.6561E-3	40.1043E-12	-1.22601E+0	22.8358E-3
-51.1811E-3	-2.61325E-12	-51.5346E-3	-51.1811E-3	-48.2065E-3	40.0193E-12	-1.23877E+0	25.2690E-3
-62.9921E-3	-3.16748E-12	-63.3069E-3	-62.9921E-3	22.5365E-3	39.9907E-12	-1.23401E+0	26.8837E-3
-74.8032E-3	-3.55457E-12	-75.1483E-3	-74.8032E-3	-97.4910E-3	40.0647E-12	-1.26131E+0	24.5573E-3
-86.6142E-3	-3.82765E-12	-87.0140E-3	-86.6142E-3	62.2500E-3	39.9529E-12	-1.22330E+0	27.5856E-3
-98.4252E-3	-4.04055E-12	-98.7896E-3	-98.4252E-3	39.1728E-3	40.0280E-12	-1.24005E+0	23.6158E-3
-110.236E-3	-4.31262E-12	-110.640E-3	-110.236E-3	15.3926E-3	39.9521E-12	-1.23121E+0	26.8892E-3
-122.047E-3	-4.47771E-12	-122.379E-3	-122.047E-3	-34.8612E-3	39.9315E-12	-1.26053E+0	27.5493E-3
-133.858E-3	-4.74649E-12	-134.243E-3	-133.858E-3	2.99849E-3	40.0525E-12	-1.29600E+0	24.1982E-3
-145.669E-3	-5.05577E-12	-146.037E-3	-145.669E-3	-146.279E-3	39.9692E-12	-1.34478E+0	26.6366E-3
-157.480E-3	-5.28838E-12	-157.803E-3	-157.480E-3	81.3379E-3	40.0140E-12	-1.30227E+0	24.1610E-3
-169.291E-3	-5.60976E-12	-169.672E-3	-169.291E-3	4.51760E-3	40.0505E-12	-1.31198E+0	25.2903E-3
-181.102E-3	-5.84318E-12	-181.410E-3	-181.102E-3	-102.242E-3	39.9888E-12	-1.36707E+0	26.3746E-3
-192.913E-3	-6.09294E-12	-193.219E-3	-192.913E-3	-95.6927E-3	40.0270E-12	-1.36627E+0	24.7635E-3
-204.724E-3	-6.43729E-12	-205.051E-3	-204.724E-3	-67.6762E-3	39.9851E-12	-1.38265E+0	27.0136E-3
-216.535E-3	-6.55815E-12	-216.857E-3	-216.535E-3	11.6869E-3	39.8985E-12	-1.36857E+0	28.7932E-3
-228.346E-3	-6.93363E-12	-228.666E-3	-228.346E-3	3.29154E-3	40.0887E-12	-1.34786E+0	24.2821E-3
-240.157E-3	-7.29122E-12	-240.476E-3	-240.157E-3	-138.497E-3	39.9436E-12	-1.38833E+0	28.8695E-3
-251.969E-3	-7.66171E-12	-252.294E-3	-251.969E-3	29.4300E-3	39.9727E-12	-1.35377E+0	28.9546E-3
-263.780E-3	-7.95687E-12	-264.053E-3	-263.780E-3	38.1841E-3	39.9734E-12	-1.35233E+0	27.6379E-3
-275.591E-3	-8.26855E-12	-275.856E-3	-275.591E-3	-69.8099E-3	39.9833E-12	-1.41712E+0	27.0682E-3
-287.402E-3	-8.75321E-12	-287.699E-3	-287.402E-3	-46.6781E-3	40.0202E-12	-1.42849E+0	27.6505E-3
-299.213E-3	-8.87069E-12	-299.496E-3	-299.213E-3	13.1172E-3	39.9938E-12	-1.42030E+0	25.2756E-3
-311.024E-3	-9.23827E-12	-311.335E-3	-311.024E-3	16.5396E-3	40.0090E-12	-1.43688E+0	25.7466E-3
-322.835E-3	-9.62746E-12	-323.124E-3	-322.835E-3	147.284E-3	40.1006E-12	-1.38840E+0	22.2134E-3
-334.646E-3	-9.70569E-12	-334.905E-3	-334.646E-3	-97.2761E-3	39.8604E-12	-1.45746E+0	28.5639E-3
-346.457E-3	-10.0499E-12	-346.724E-3	-346.457E-3	-82.2021E-3	40.0822E-12	-1.48003E+0	24.2381E-3
-358.268E-3	-10.3250E-12	-358.560E-3	-358.268E-3	44.1847E-3	40.0068E-12	-1.45342E+0	24.6025E-3
-370.079E-3	-10.5973E-12	-370.366E-3	-370.079E-3	27.3879E-3	39.9512E-12	-1.46682E+0	28.9113E-3
-381.890E-3	-10.9093E-12	-382.142E-3	-381.890E-3	-81.0997E-3	40.0308E-12	-1.50106E+0	25.8493E-3
-393.701E-3	-11.2324E-12	-394.009E-3	-393.701E-3	-117.206E-3	40.0189E-12	-1.53551E+0	25.2070E-3
-405.512E-3	-11.5469E-12	-405.818E-3	-405.512E-3	-112.522E-3	40.0345E-12	-1.55813E+0	25.6129E-3
-417.323E-3	-11.8083E-12	-417.619E-3	-417.323E-3	20.0161E-3	39.9733E-12	-1.52879E+0	25.8354E-3
-429.134E-3	-12.1770E-12	-429.432E-3	-429.134E-3	10.0284E-3	40.0267E-12	-1.55357E+0	26.4550E-3
-440.945E-3	-12.5727E-12	-441.233E-3	-440.945E-3	-122.894E-3	40.0219E-12	-1.59841E+0	23.7358E-3
-452.756E-3	-12.9790E-12	-453.031E-3	-452.756E-3	-108.163E-3	39.9748E-12	-1.61217E+0	27.0361E-3
-464.567E-3	-13.4369E-12	-464.853E-3	-464.567E-3	-21.1337E-3	40.0522E-12	-1.60363E+0	23.9920E-3
-476.378E-3	-13.8362E-12	-476.677E-3	-476.378E-3	-54.9914E-3	39.8920E-12	-1.59580E+0	28.2698E-3
-488.189E-3	-14.3131E-12	-488.412E-3	-488.189E-3	-35.1172E-3	40.0072E-12	-1.60524E+0	27.7394E-3
-500.000E-3	-14.7319E-12	-500.248E-3	-500.000E-3	-69.9103E-3	40.0168E-12	-1.61812E+0	26.1788E-3
