Experiment	bias spectroscopy	
Date	01.12.2015 09:33:57	
User		
X (m)	282.082E-9	
Y (m)	-137.964E-9	
Z (m)	-4.07703E-9	
Z offset (m)	0E+0	
Settling time (s)	30E-3	
Integration time (s)	200E-3	
Z-Ctrl hold	TRUE	
Final Z (m)	-4.07703E-9	
Filter type	None	
Order		
Cutoff frq		
Current (A)	16.1242E-12	
Z (m)	-4.07703E-9	
Phase (deg)	-278.142E-3	
Amplitude (m)	39.9336E-12	
Frequency Shift (Hz)	-1.14127E+0	
Excitation (V)	18.1837E-3	

[DATA]
Bias calc (V)	Current (A)	Applied Voltage measured (V)	Bias (V)	Phase (deg)	Amplitude (m)	Frequency Shift (Hz)	Excitation (V)
1.00000E+0	15.7582E-12	999.335E-3	1.00000E+0	74.2751E-3	40.0258E-12	-1.05413E+0	25.3740E-3
988.189E-3	15.7364E-12	987.530E-3	988.189E-3	141.913E-3	40.0417E-12	-1.02014E+0	26.1062E-3
976.378E-3	15.5134E-12	975.769E-3	976.378E-3	112.835E-3	39.9263E-12	-999.880E-3	28.4414E-3
964.567E-3	15.4647E-12	963.901E-3	964.567E-3	-38.9705E-3	40.0238E-12	-1.04498E+0	25.3408E-3
952.756E-3	15.1984E-12	952.147E-3	952.756E-3	-51.6060E-3	40.0825E-12	-1.06964E+0	23.5001E-3
940.945E-3	15.1636E-12	940.304E-3	940.945E-3	-126.665E-3	40.0809E-12	-1.09610E+0	24.6937E-3
929.134E-3	14.8284E-12	928.486E-3	929.134E-3	1.17933E-3	39.9758E-12	-1.05544E+0	24.8508E-3
917.323E-3	14.8063E-12	916.738E-3	917.323E-3	220.090E-3	40.0267E-12	-971.586E-3	20.8928E-3
905.512E-3	14.6540E-12	904.879E-3	905.512E-3	-40.3123E-3	40.0128E-12	-1.04317E+0	25.3019E-3
893.701E-3	14.4324E-12	893.120E-3	893.701E-3	105.097E-3	40.0219E-12	-967.130E-3	26.0915E-3
881.890E-3	14.5930E-12	881.285E-3	881.890E-3	21.6663E-3	40.0074E-12	-1.00843E+0	23.6945E-3
870.079E-3	14.2052E-12	869.473E-3	870.079E-3	-122.626E-3	39.9331E-12	-1.05262E+0	26.4901E-3
858.268E-3	14.1468E-12	857.656E-3	858.268E-3	-3.31513E-3	40.0657E-12	-1.03753E+0	22.4041E-3
846.457E-3	13.9743E-12	845.819E-3	846.457E-3	438.451E-6	39.9591E-12	-1.03145E+0	27.8888E-3
834.646E-3	13.8374E-12	834.048E-3	834.646E-3	146.806E-3	40.0507E-12	-967.146E-3	26.4943E-3
822.835E-3	13.6538E-12	822.237E-3	822.835E-3	125.081E-3	39.9654E-12	-953.658E-3	26.8676E-3
811.024E-3	13.5332E-12	810.409E-3	811.024E-3	-35.0761E-3	40.0599E-12	-1.00724E+0	22.0944E-3
799.213E-3	13.3083E-12	798.633E-3	799.213E-3	114.289E-3	39.9669E-12	-961.025E-3	26.0655E-3
787.402E-3	13.0961E-12	786.813E-3	787.402E-3	-70.0640E-3	40.0037E-12	-983.360E-3	22.4666E-3
775.591E-3	13.1261E-12	775.027E-3	775.591E-3	17.7796E-3	39.9895E-12	-969.321E-3	25.5329E-3
763.780E-3	13.0179E-12	763.197E-3	763.780E-3	152.771E-3	39.9293E-12	-925.186E-3	29.5459E-3
751.969E-3	12.8636E-12	751.416E-3	751.969E-3	-112.860E-3	40.0744E-12	-1.02721E+0	24.6748E-3
740.157E-3	12.5717E-12	739.611E-3	740.157E-3	159.039E-3	39.9834E-12	-941.732E-3	27.5149E-3
728.346E-3	12.3750E-12	727.782E-3	728.346E-3	-72.5574E-3	40.0296E-12	-1.00561E+0	27.5470E-3
716.535E-3	12.3011E-12	715.993E-3	716.535E-3	-19.9181E-3	40.0441E-12	-995.111E-3	24.0574E-3
704.724E-3	12.3028E-12	704.305E-3	704.724E-3	95.2761E-3	40.0559E-12	-945.244E-3	24.9822E-3
692.913E-3	11.9172E-12	692.510E-3	692.913E-3	45.6499E-3	39.9399E-12	-951.279E-3	28.7114E-3
681.102E-3	11.7422E-12	680.727E-3	681.102E-3	167.349E-3	39.9572E-12	-903.886E-3	29.5817E-3
669.291E-3	11.6645E-12	668.909E-3	669.291E-3	11.3514E-3	39.9499E-12	-954.114E-3	29.4789E-3
657.480E-3	11.5832E-12	657.073E-3	657.480E-3	-76.4889E-3	40.0893E-12	-974.967E-3	24.4407E-3
645.669E-3	11.4090E-12	645.270E-3	645.669E-3	53.1917E-3	39.9972E-12	-925.818E-3	25.3401E-3
633.858E-3	11.1947E-12	633.460E-3	633.858E-3	17.6980E-3	39.9894E-12	-931.025E-3	25.0472E-3
622.047E-3	11.1114E-12	621.653E-3	622.047E-3	71.9103E-3	39.9962E-12	-918.940E-3	25.8009E-3
610.236E-3	10.8995E-12	609.893E-3	610.236E-3	-85.0579E-3	39.9661E-12	-963.665E-3	26.4451E-3
598.425E-3	10.8068E-12	598.087E-3	598.425E-3	-23.0503E-3	39.9660E-12	-964.848E-3	24.3528E-3
586.614E-3	10.6479E-12	586.269E-3	586.614E-3	-41.4719E-3	39.9420E-12	-981.131E-3	28.2796E-3
574.803E-3	10.4884E-12	574.448E-3	574.803E-3	69.4466E-3	40.0803E-12	-943.422E-3	25.1562E-3
562.992E-3	10.3674E-12	562.662E-3	562.992E-3	-40.7348E-3	40.0070E-12	-963.037E-3	24.8531E-3
551.181E-3	10.1577E-12	550.849E-3	551.181E-3	19.0227E-3	39.9683E-12	-932.386E-3	25.4985E-3
539.370E-3	10.0460E-12	538.984E-3	539.370E-3	134.581E-3	40.0795E-12	-875.845E-3	24.2945E-3
527.559E-3	9.97736E-12	527.200E-3	527.559E-3	2.61543E-3	40.0048E-12	-910.060E-3	25.4536E-3
515.748E-3	9.54977E-12	515.369E-3	515.748E-3	-199.364E-3	39.9654E-12	-981.855E-3	24.8392E-3
503.937E-3	9.39372E-12	503.577E-3	503.937E-3	170.437E-3	39.9882E-12	-897.615E-3	26.8384E-3
492.126E-3	9.39016E-12	491.759E-3	492.126E-3	-89.5152E-3	40.0568E-12	-981.592E-3	23.4084E-3
480.315E-3	9.06406E-12	479.957E-3	480.315E-3	39.3123E-3	40.0040E-12	-931.509E-3	23.8826E-3
468.504E-3	8.85173E-12	468.160E-3	468.504E-3	119.917E-3	40.0011E-12	-900.809E-3	26.0679E-3
456.693E-3	8.75201E-12	456.351E-3	456.693E-3	-105.559E-3	39.9832E-12	-977.545E-3	25.9265E-3
444.882E-3	8.58829E-12	444.580E-3	444.882E-3	-88.7720E-3	40.0179E-12	-975.241E-3	27.2740E-3
433.071E-3	8.32425E-12	432.751E-3	433.071E-3	95.4666E-3	40.0541E-12	-921.754E-3	25.2088E-3
421.260E-3	8.08353E-12	420.947E-3	421.260E-3	81.1965E-3	39.9196E-12	-918.962E-3	30.2844E-3
409.449E-3	7.89796E-12	409.155E-3	409.449E-3	103.487E-3	39.9647E-12	-905.413E-3	29.6394E-3
397.638E-3	7.71307E-12	397.299E-3	397.638E-3	114.476E-3	39.9914E-12	-892.304E-3	29.3284E-3
385.827E-3	7.55002E-12	385.546E-3	385.827E-3	-157.214E-3	40.0477E-12	-978.300E-3	23.7746E-3
374.016E-3	7.30916E-12	373.702E-3	374.016E-3	153.693E-3	39.9648E-12	-919.209E-3	26.1072E-3
362.205E-3	7.08015E-12	361.909E-3	362.205E-3	5.05031E-3	40.0575E-12	-960.454E-3	23.7153E-3
350.394E-3	6.94683E-12	350.156E-3	350.394E-3	7.48294E-3	39.9963E-12	-948.099E-3	25.3219E-3
338.583E-3	6.61675E-12	338.308E-3	338.583E-3	-2.28630E-3	39.9639E-12	-956.599E-3	25.8567E-3
326.772E-3	6.50898E-12	326.512E-3	326.772E-3	18.6170E-3	39.9669E-12	-939.238E-3	27.2399E-3
314.961E-3	6.33637E-12	314.688E-3	314.961E-3	-22.1434E-3	39.9600E-12	-949.529E-3	26.8290E-3
303.150E-3	6.20072E-12	302.875E-3	303.150E-3	-52.9948E-3	40.0723E-12	-974.323E-3	23.8845E-3
291.339E-3	5.86706E-12	291.121E-3	291.339E-3	108.808E-3	39.9793E-12	-901.383E-3	27.5996E-3
279.528E-3	5.77839E-12	279.284E-3	279.528E-3	-186.219E-3	40.0834E-12	-1.01713E+0	24.7137E-3
267.717E-3	5.49040E-12	267.470E-3	267.717E-3	-9.13690E-3	40.0220E-12	-990.011E-3	25.0041E-3
255.906E-3	5.28424E-12	255.640E-3	255.906E-3	29.0865E-3	39.9837E-12	-977.948E-3	25.8539E-3
244.094E-3	5.02807E-12	243.870E-3	244.094E-3	76.1607E-3	39.9727E-12	-950.297E-3	26.5176E-3
232.283E-3	4.85026E-12	232.008E-3	232.283E-3	-128.332E-3	39.9922E-12	-1.02341E+0	27.2413E-3
220.472E-3	4.65415E-12	220.171E-3	220.472E-3	-118.607E-3	40.0018E-12	-1.04366E+0	24.7839E-3
208.661E-3	4.40191E-12	208.394E-3	208.661E-3	-23.4173E-3	39.9938E-12	-997.679E-3	25.5130E-3
196.850E-3	4.21133E-12	196.567E-3	196.850E-3	30.7200E-3	40.0393E-12	-977.971E-3	23.7093E-3
185.039E-3	3.98576E-12	184.795E-3	185.039E-3	-48.5335E-3	40.0680E-12	-998.930E-3	25.7519E-3
173.228E-3	3.74172E-12	172.983E-3	173.228E-3	-28.0826E-3	40.0194E-12	-999.991E-3	25.0609E-3
161.417E-3	3.48627E-12	161.146E-3	161.417E-3	-6.67850E-3	40.0187E-12	-1.00493E+0	25.3409E-3
149.606E-3	3.21372E-12	149.330E-3	149.606E-3	28.9392E-3	39.9696E-12	-994.900E-3	29.3432E-3
137.795E-3	3.01938E-12	137.536E-3	137.795E-3	97.0406E-6	39.9930E-12	-986.013E-3	27.9072E-3
125.984E-3	2.76850E-12	125.777E-3	125.984E-3	-161.646E-3	39.9911E-12	-1.07181E+0	29.1862E-3
114.173E-3	2.57035E-12	113.943E-3	114.173E-3	-1.62079E-3	40.0437E-12	-1.03578E+0	26.1274E-3
102.362E-3	2.29589E-12	102.135E-3	102.362E-3	-40.8374E-3	40.0283E-12	-1.04798E+0	23.9850E-3
90.5512E-3	2.04066E-12	90.3258E-3	90.5512E-3	-42.1775E-3	39.9174E-12	-1.04762E+0	28.4287E-3
78.7402E-3	1.78145E-12	78.4906E-3	78.7402E-3	-126.573E-3	40.0291E-12	-1.09251E+0	27.9116E-3
66.9291E-3	1.54489E-12	66.6265E-3	66.9291E-3	72.9892E-3	39.9813E-12	-1.02134E+0	26.8250E-3
55.1181E-3	1.26134E-12	54.8511E-3	55.1181E-3	83.2915E-3	40.0754E-12	-1.03247E+0	25.2448E-3
43.3071E-3	996.972E-15	43.0319E-3	43.3071E-3	-191.475E-3	39.9850E-12	-1.11367E+0	26.8706E-3
31.4961E-3	696.358E-15	31.2027E-3	31.4961E-3	39.3637E-3	39.9879E-12	-1.06865E+0	26.3607E-3
19.6850E-3	399.885E-15	19.4104E-3	19.6850E-3	-159.721E-3	40.0287E-12	-1.12426E+0	22.5321E-3
7.87402E-3	98.6699E-15	7.55789E-3	7.87402E-3	195.319E-3	40.0317E-12	-1.03245E+0	28.1769E-3
-3.93701E-3	-222.231E-15	-4.33228E-3	-3.93701E-3	-121.804E-3	39.9536E-12	-1.11285E+0	26.5095E-3
-15.7480E-3	-536.941E-15	-16.1170E-3	-15.7480E-3	-159.258E-3	40.0289E-12	-1.13233E+0	24.8896E-3
-27.5591E-3	-839.620E-15	-27.9272E-3	-27.5591E-3	-32.6855E-3	40.0450E-12	-1.10881E+0	25.3090E-3
-39.3701E-3	-1.16477E-12	-39.6925E-3	-39.3701E-3	23.9847E-3	39.9783E-12	-1.12077E+0	29.2983E-3
-51.1811E-3	-1.51368E-12	-51.5500E-3	-51.1811E-3	39.5564E-3	39.9815E-12	-1.10009E+0	25.7527E-3
-62.9921E-3	-1.87798E-12	-63.3160E-3	-62.9921E-3	-97.6549E-3	40.0266E-12	-1.14749E+0	26.5836E-3
-74.8032E-3	-2.10419E-12	-75.1524E-3	-74.8032E-3	-34.5613E-3	40.0563E-12	-1.12539E+0	24.0975E-3
-86.6142E-3	-2.19533E-12	-87.0132E-3	-86.6142E-3	-36.9543E-3	39.9866E-12	-1.14066E+0	28.7808E-3
-98.4252E-3	-2.33719E-12	-98.7831E-3	-98.4252E-3	68.7337E-3	40.0119E-12	-1.12100E+0	29.4604E-3
-110.236E-3	-2.48180E-12	-110.633E-3	-110.236E-3	-116.361E-3	40.0551E-12	-1.18810E+0	24.9291E-3
-122.047E-3	-2.59833E-12	-122.378E-3	-122.047E-3	-94.8144E-3	39.9802E-12	-1.19111E+0	25.9883E-3
-133.858E-3	-2.73307E-12	-134.233E-3	-133.858E-3	58.4985E-3	39.9354E-12	-1.15133E+0	27.0398E-3
-145.669E-3	-2.84553E-12	-146.034E-3	-145.669E-3	-106.951E-3	39.9842E-12	-1.19982E+0	27.9800E-3
-157.480E-3	-3.02314E-12	-157.799E-3	-157.480E-3	-906.980E-6	40.0063E-12	-1.18339E+0	24.4253E-3
-169.291E-3	-3.24108E-12	-169.672E-3	-169.291E-3	-68.8332E-3	40.0079E-12	-1.22336E+0	25.9706E-3
-181.102E-3	-3.33559E-12	-181.420E-3	-181.102E-3	-206.739E-3	40.0409E-12	-1.27871E+0	24.2471E-3
-192.913E-3	-3.49130E-12	-193.240E-3	-192.913E-3	64.7042E-3	40.0012E-12	-1.20498E+0	25.7825E-3
-204.724E-3	-3.61068E-12	-205.069E-3	-204.724E-3	-111.593E-3	40.0270E-12	-1.25308E+0	24.6129E-3
-216.535E-3	-3.72555E-12	-216.861E-3	-216.535E-3	-106.378E-3	39.9351E-12	-1.28874E+0	27.5108E-3
-228.346E-3	-3.86715E-12	-228.683E-3	-228.346E-3	-38.9842E-3	40.0230E-12	-1.26030E+0	24.8943E-3
-240.157E-3	-3.96925E-12	-240.486E-3	-240.157E-3	8.48865E-3	39.9284E-12	-1.25820E+0	28.7265E-3
-251.969E-3	-4.21970E-12	-252.307E-3	-251.969E-3	106.702E-3	40.0968E-12	-1.21384E+0	23.0820E-3
-263.780E-3	-4.37941E-12	-264.072E-3	-263.780E-3	-82.8826E-3	40.0100E-12	-1.27538E+0	26.4057E-3
-275.591E-3	-4.53573E-12	-275.870E-3	-275.591E-3	-205.409E-3	39.9809E-12	-1.34007E+0	27.8643E-3
-287.402E-3	-4.67011E-12	-287.718E-3	-287.402E-3	57.1215E-3	39.9958E-12	-1.28745E+0	24.6401E-3
-299.213E-3	-4.90605E-12	-299.506E-3	-299.213E-3	58.1352E-3	40.0312E-12	-1.26829E+0	26.9772E-3
-311.024E-3	-5.08025E-12	-311.339E-3	-311.024E-3	-3.80055E-3	40.0195E-12	-1.28460E+0	25.5237E-3
-322.835E-3	-5.17482E-12	-323.128E-3	-322.835E-3	-162.654E-3	39.9181E-12	-1.35976E+0	29.4591E-3
-334.646E-3	-5.26081E-12	-334.909E-3	-334.646E-3	-71.6478E-3	40.0366E-12	-1.36755E+0	27.0775E-3
-346.457E-3	-5.40391E-12	-346.726E-3	-346.457E-3	55.9050E-3	40.0787E-12	-1.31690E+0	22.4578E-3
-358.268E-3	-5.51334E-12	-358.566E-3	-358.268E-3	-15.1739E-3	39.9745E-12	-1.33349E+0	26.1832E-3
-370.079E-3	-5.58640E-12	-370.364E-3	-370.079E-3	72.7565E-3	39.9875E-12	-1.33156E+0	26.8440E-3
-381.890E-3	-5.68309E-12	-382.135E-3	-381.890E-3	-119.707E-3	39.9423E-12	-1.41415E+0	27.2821E-3
-393.701E-3	-5.80333E-12	-394.004E-3	-393.701E-3	-64.0415E-3	39.9951E-12	-1.42177E+0	28.2344E-3
-405.512E-3	-6.02018E-12	-405.816E-3	-405.512E-3	-35.3220E-3	40.0063E-12	-1.41157E+0	26.2785E-3
-417.323E-3	-6.12977E-12	-417.612E-3	-417.323E-3	-61.4723E-3	39.9389E-12	-1.42621E+0	26.6989E-3
-429.134E-3	-6.29723E-12	-429.422E-3	-429.134E-3	-63.8855E-3	40.0271E-12	-1.43623E+0	25.9931E-3
-440.945E-3	-6.44355E-12	-441.221E-3	-440.945E-3	-121.846E-3	39.9473E-12	-1.47049E+0	27.7046E-3
-452.756E-3	-6.57488E-12	-453.021E-3	-452.756E-3	-57.4940E-3	39.9808E-12	-1.46124E+0	28.4726E-3
-464.567E-3	-6.92439E-12	-464.839E-3	-464.567E-3	-98.7581E-3	40.0218E-12	-1.49760E+0	28.7979E-3
-476.378E-3	-7.20364E-12	-476.665E-3	-476.378E-3	64.9998E-3	39.9752E-12	-1.47506E+0	28.3924E-3
-488.189E-3	-7.48974E-12	-488.395E-3	-488.189E-3	-85.3506E-3	40.0371E-12	-1.50720E+0	26.0425E-3
-500.000E-3	-7.80462E-12	-500.244E-3	-500.000E-3	-159.035E-3	40.0154E-12	-1.55723E+0	25.7510E-3
