Experiment	bias spectroscopy	
Date	30.11.2015 18:34:53	
User		
X (m)	28.5386E-9	
Y (m)	-166.419E-9	
Z (m)	-3.75578E-9	
Z offset (m)	0E+0	
Settling time (s)	30E-3	
Integration time (s)	200E-3	
Z-Ctrl hold	TRUE	
Final Z (m)	-3.75578E-9	
Filter type	None	
Order		
Cutoff frq		
Current (A)	39.991E-12	
Z (m)	-3.75578E-9	
Phase (deg)	141.515E-3	
Amplitude (m)	40.1683E-12	
Frequency Shift (Hz)	-770.271E-3	
Excitation (V)	18.3361E-3	

[DATA]
Bias calc (V)	Current (A)	Applied Voltage measured (V)	Bias (V)	Phase (deg)	Amplitude (m)	Frequency Shift (Hz)	Excitation (V)
1.00000E+0	35.9141E-12	999.319E-3	1.00000E+0	126.321E-3	39.9559E-12	-763.819E-3	26.2699E-3
988.189E-3	35.4815E-12	987.526E-3	988.189E-3	13.7394E-3	39.9874E-12	-802.851E-3	22.6617E-3
976.378E-3	34.6752E-12	975.760E-3	976.378E-3	136.523E-3	39.9573E-12	-740.790E-3	26.6878E-3
964.567E-3	34.3648E-12	963.886E-3	964.567E-3	-60.2691E-3	40.0384E-12	-802.813E-3	25.0462E-3
952.756E-3	33.8492E-12	952.139E-3	952.756E-3	-21.1320E-3	39.9895E-12	-791.806E-3	23.7064E-3
940.945E-3	38.7027E-12	940.295E-3	940.945E-3	-296.189E-6	40.0759E-12	-751.866E-3	22.2551E-3
929.134E-3	37.4538E-12	928.477E-3	929.134E-3	-45.2718E-3	39.9691E-12	-781.861E-3	23.5243E-3
917.323E-3	36.5720E-12	916.722E-3	917.323E-3	92.4145E-3	39.9373E-12	-737.141E-3	27.4981E-3
905.512E-3	35.9614E-12	904.863E-3	905.512E-3	-26.0709E-3	39.9606E-12	-774.908E-3	23.9571E-3
893.701E-3	36.2861E-12	893.116E-3	893.701E-3	157.684E-3	40.0398E-12	-688.706E-3	26.3486E-3
881.890E-3	35.9531E-12	881.272E-3	881.890E-3	-22.6543E-3	40.0547E-12	-731.358E-3	26.5163E-3
870.079E-3	35.0300E-12	869.467E-3	870.079E-3	70.4314E-3	40.0173E-12	-690.506E-3	24.4084E-3
858.268E-3	34.5152E-12	857.652E-3	858.268E-3	82.3261E-3	39.9868E-12	-694.722E-3	25.1616E-3
846.457E-3	34.3426E-12	845.818E-3	846.457E-3	59.3603E-3	40.0479E-12	-683.731E-3	23.1119E-3
834.646E-3	33.9486E-12	834.035E-3	834.646E-3	-156.462E-3	40.0384E-12	-755.791E-3	24.7741E-3
822.835E-3	32.9943E-12	822.232E-3	822.835E-3	70.5366E-3	40.0086E-12	-688.511E-3	24.3683E-3
811.024E-3	32.2449E-12	810.393E-3	811.024E-3	39.3213E-3	39.8915E-12	-675.405E-3	27.7580E-3
799.213E-3	32.4997E-12	798.620E-3	799.213E-3	23.7852E-3	39.9905E-12	-666.757E-3	27.2522E-3
787.402E-3	32.3989E-12	786.796E-3	787.402E-3	98.9373E-3	39.9985E-12	-637.785E-3	26.7388E-3
775.591E-3	31.6031E-12	775.001E-3	775.591E-3	-23.1613E-3	40.0110E-12	-677.530E-3	20.6792E-3
763.780E-3	30.8688E-12	763.176E-3	763.780E-3	-97.3835E-3	39.8801E-12	-735.162E-3	26.7645E-3
751.969E-3	31.1376E-12	751.403E-3	751.969E-3	40.0319E-3	40.0859E-12	-669.746E-3	28.4197E-3
740.157E-3	30.5132E-12	739.596E-3	740.157E-3	-72.7722E-3	40.0118E-12	-705.581E-3	25.8681E-3
728.346E-3	29.9925E-12	727.774E-3	728.346E-3	-105.455E-3	39.9590E-12	-729.634E-3	27.5451E-3
716.535E-3	29.8143E-12	715.981E-3	716.535E-3	100.624E-3	40.0431E-12	-654.565E-3	26.6281E-3
704.724E-3	29.0979E-12	704.292E-3	704.724E-3	167.622E-3	39.9117E-12	-603.952E-3	29.1112E-3
692.913E-3	29.0233E-12	692.491E-3	692.913E-3	23.6536E-3	40.0475E-12	-615.436E-3	25.0637E-3
681.102E-3	24.0573E-12	680.715E-3	681.102E-3	-133.947E-3	39.9587E-12	-686.311E-3	26.5871E-3
669.291E-3	26.5042E-12	668.901E-3	669.291E-3	138.494E-3	40.0405E-12	-591.135E-3	26.8353E-3
657.480E-3	27.1986E-12	657.067E-3	657.480E-3	-36.2299E-3	40.0069E-12	-634.255E-3	24.7391E-3
645.669E-3	27.2747E-12	645.257E-3	645.669E-3	-145.789E-3	39.9399E-12	-689.746E-3	25.6468E-3
633.858E-3	26.8084E-12	633.456E-3	633.858E-3	207.429E-3	40.0014E-12	-582.422E-3	27.0484E-3
622.047E-3	26.5885E-12	621.650E-3	622.047E-3	-121.491E-3	39.9834E-12	-664.064E-3	25.3738E-3
610.236E-3	25.8978E-12	609.881E-3	610.236E-3	-114.503E-3	39.9951E-12	-680.595E-3	28.9658E-3
598.425E-3	25.5590E-12	598.074E-3	598.425E-3	-31.5603E-3	40.0915E-12	-652.578E-3	23.5861E-3
586.614E-3	24.3071E-12	586.270E-3	586.614E-3	35.0459E-3	39.9542E-12	-656.541E-3	23.9798E-3
574.803E-3	24.4826E-12	574.440E-3	574.803E-3	61.5006E-3	40.0717E-12	-640.791E-3	24.8703E-3
562.992E-3	23.9054E-12	562.671E-3	562.992E-3	-58.9848E-3	39.9544E-12	-672.666E-3	24.3722E-3
551.181E-3	23.3563E-12	550.855E-3	551.181E-3	23.1826E-3	40.0068E-12	-678.671E-3	26.4807E-3
539.370E-3	23.0241E-12	538.991E-3	539.370E-3	77.0056E-3	39.9756E-12	-638.890E-3	25.4502E-3
527.559E-3	22.5403E-12	527.196E-3	527.559E-3	35.5021E-3	39.9385E-12	-642.595E-3	25.6697E-3
515.748E-3	22.1119E-12	515.362E-3	515.748E-3	60.7845E-3	40.0796E-12	-627.463E-3	23.8094E-3
503.937E-3	21.6324E-12	503.581E-3	503.937E-3	66.3801E-3	39.9514E-12	-618.869E-3	27.8353E-3
492.126E-3	21.4130E-12	491.758E-3	492.126E-3	79.0766E-3	40.0172E-12	-629.218E-3	25.4217E-3
480.315E-3	20.7999E-12	479.945E-3	480.315E-3	-10.6883E-3	40.0074E-12	-644.483E-3	24.3945E-3
468.504E-3	20.1333E-12	468.140E-3	468.504E-3	-98.0913E-3	39.9713E-12	-654.587E-3	25.7752E-3
456.693E-3	19.5961E-12	456.333E-3	456.693E-3	-121.384E-3	39.8801E-12	-686.012E-3	27.9026E-3
444.882E-3	19.2799E-12	444.569E-3	444.882E-3	-61.1521E-3	40.1040E-12	-701.090E-3	24.2485E-3
433.071E-3	18.8479E-12	432.732E-3	433.071E-3	95.5769E-3	40.0006E-12	-632.916E-3	24.4069E-3
421.260E-3	18.1923E-12	420.926E-3	421.260E-3	223.952E-3	40.0835E-12	-577.759E-3	22.6989E-3
409.449E-3	17.6342E-12	409.140E-3	409.449E-3	-38.1833E-3	39.8888E-12	-630.116E-3	27.3717E-3
397.638E-3	17.2279E-12	397.299E-3	397.638E-3	59.3948E-3	40.0874E-12	-615.322E-3	24.8561E-3
385.827E-3	16.7561E-12	385.528E-3	385.827E-3	-104.145E-3	40.0294E-12	-664.622E-3	22.1037E-3
374.016E-3	16.4513E-12	373.687E-3	374.016E-3	-26.2354E-3	39.9931E-12	-637.191E-3	25.4095E-3
362.205E-3	15.8916E-12	361.892E-3	362.205E-3	60.1609E-3	40.0647E-12	-613.690E-3	21.8203E-3
350.394E-3	15.2088E-12	350.135E-3	350.394E-3	96.9366E-3	39.9810E-12	-606.151E-3	28.1064E-3
338.583E-3	14.7046E-12	338.283E-3	338.583E-3	-54.8485E-3	39.9385E-12	-639.946E-3	28.0957E-3
326.772E-3	14.3721E-12	326.504E-3	326.772E-3	116.248E-3	40.1188E-12	-562.416E-3	28.4228E-3
314.961E-3	13.7256E-12	314.668E-3	314.961E-3	-188.393E-3	39.9925E-12	-658.481E-3	23.4225E-3
303.150E-3	13.2106E-12	302.846E-3	303.150E-3	-44.9456E-3	40.0101E-12	-638.386E-3	26.1310E-3
291.339E-3	12.7746E-12	291.098E-3	291.339E-3	-8.83259E-3	39.9814E-12	-645.587E-3	27.5042E-3
279.528E-3	12.2713E-12	279.274E-3	279.528E-3	-7.02371E-3	39.9830E-12	-658.783E-3	26.4167E-3
267.717E-3	11.7361E-12	267.459E-3	267.717E-3	-3.46584E-3	40.0200E-12	-657.907E-3	24.9920E-3
255.906E-3	11.2605E-12	255.633E-3	255.906E-3	67.2733E-3	39.9854E-12	-643.684E-3	24.3287E-3
244.094E-3	10.8502E-12	243.859E-3	244.094E-3	51.6794E-3	40.0074E-12	-638.457E-3	24.5156E-3
232.283E-3	10.0564E-12	232.003E-3	232.283E-3	-43.7686E-3	39.9725E-12	-658.306E-3	28.9763E-3
220.472E-3	9.52915E-12	220.170E-3	220.472E-3	-70.6327E-3	40.0100E-12	-661.460E-3	23.9498E-3
208.661E-3	8.96628E-12	208.393E-3	208.661E-3	-139.923E-3	39.9696E-12	-736.638E-3	28.0487E-3
196.850E-3	8.39963E-12	196.558E-3	196.850E-3	95.3231E-3	39.9731E-12	-678.756E-3	26.4181E-3
185.039E-3	7.86515E-12	184.796E-3	185.039E-3	59.4686E-3	40.0122E-12	-681.909E-3	27.7132E-3
173.228E-3	7.23406E-12	172.984E-3	173.228E-3	-56.3246E-3	40.0245E-12	-687.919E-3	26.2682E-3
161.417E-3	6.64891E-12	161.149E-3	161.417E-3	15.3018E-3	39.9627E-12	-686.490E-3	28.9243E-3
149.606E-3	6.11680E-12	149.329E-3	149.606E-3	581.384E-6	40.0203E-12	-706.743E-3	29.0771E-3
137.795E-3	5.57277E-12	137.541E-3	137.795E-3	-72.9840E-3	40.0181E-12	-745.737E-3	28.5423E-3
125.984E-3	5.01680E-12	125.765E-3	125.984E-3	22.2912E-3	40.0301E-12	-707.091E-3	26.1204E-3
114.173E-3	4.38981E-12	113.936E-3	114.173E-3	-12.3601E-3	39.9316E-12	-713.587E-3	27.1677E-3
102.362E-3	3.95775E-12	102.127E-3	102.362E-3	-47.4021E-3	39.9956E-12	-721.728E-3	26.2102E-3
90.5512E-3	3.51367E-12	90.3158E-3	90.5512E-3	38.5477E-3	40.0164E-12	-679.982E-3	25.4877E-3
78.7402E-3	3.00800E-12	78.4859E-3	78.7402E-3	42.5347E-3	40.0495E-12	-686.821E-3	22.2886E-3
66.9291E-3	2.53851E-12	66.6124E-3	66.9291E-3	-88.4323E-3	40.0440E-12	-740.161E-3	25.3450E-3
55.1181E-3	2.09139E-12	54.8369E-3	55.1181E-3	-50.3722E-3	39.9805E-12	-730.228E-3	26.1638E-3
43.3071E-3	1.56839E-12	43.0192E-3	43.3071E-3	88.3354E-3	39.9842E-12	-724.436E-3	29.2959E-3
31.4961E-3	1.09143E-12	31.1852E-3	31.4961E-3	-163.393E-3	40.0487E-12	-796.322E-3	26.4715E-3
19.6850E-3	616.359E-15	19.3968E-3	19.6850E-3	116.402E-3	39.9921E-12	-717.452E-3	26.7893E-3
7.87402E-3	182.558E-15	7.54283E-3	7.87402E-3	25.8098E-3	40.0323E-12	-720.097E-3	24.3634E-3
-3.93701E-3	-251.778E-15	-4.35173E-3	-3.93701E-3	-123.523E-3	40.1051E-12	-777.318E-3	23.5033E-3
-15.7480E-3	-674.002E-15	-16.1463E-3	-15.7480E-3	-50.8830E-3	39.8864E-12	-765.124E-3	26.8754E-3
-27.5591E-3	-1.14153E-12	-27.9499E-3	-27.5591E-3	-62.0573E-3	39.9392E-12	-793.986E-3	28.2605E-3
-39.3701E-3	-1.57205E-12	-39.7124E-3	-39.3701E-3	-18.9297E-3	39.9580E-12	-789.632E-3	27.0429E-3
-51.1811E-3	-2.04155E-12	-51.5673E-3	-51.1811E-3	20.4102E-3	40.0671E-12	-788.827E-3	24.3330E-3
-62.9921E-3	-2.37458E-12	-63.3370E-3	-62.9921E-3	-76.0492E-3	40.0343E-12	-821.074E-3	24.2448E-3
-74.8032E-3	-2.66300E-12	-75.1714E-3	-74.8032E-3	104.775E-3	39.9560E-12	-747.943E-3	26.0057E-3
-86.6142E-3	-2.88160E-12	-87.0362E-3	-86.6142E-3	-94.8744E-3	40.0370E-12	-811.273E-3	24.2112E-3
-98.4252E-3	-3.02808E-12	-98.8009E-3	-98.4252E-3	-88.1025E-3	39.8966E-12	-834.793E-3	31.5674E-3
-110.236E-3	-3.18008E-12	-110.664E-3	-110.236E-3	-19.8006E-3	40.0071E-12	-820.906E-3	26.2548E-3
-122.047E-3	-3.32070E-12	-122.398E-3	-122.047E-3	-42.0987E-3	40.0745E-12	-841.531E-3	25.5095E-3
-133.858E-3	-3.42229E-12	-134.257E-3	-133.858E-3	-62.6447E-3	40.0058E-12	-839.587E-3	25.2560E-3
-145.669E-3	-3.54651E-12	-146.063E-3	-145.669E-3	-13.9115E-3	39.9978E-12	-836.736E-3	27.5872E-3
-157.480E-3	-3.65829E-12	-157.840E-3	-157.480E-3	-49.3489E-3	39.9917E-12	-852.345E-3	28.3032E-3
-169.291E-3	-3.79136E-12	-169.706E-3	-169.291E-3	-217.160E-3	40.0311E-12	-939.970E-3	25.2299E-3
-181.102E-3	-3.94639E-12	-181.456E-3	-181.102E-3	31.2705E-3	40.0150E-12	-874.303E-3	27.3897E-3
-192.913E-3	-4.04530E-12	-193.263E-3	-192.913E-3	44.9563E-3	39.8702E-12	-862.062E-3	28.9982E-3
-204.724E-3	-4.20937E-12	-205.086E-3	-204.724E-3	36.7818E-3	39.9621E-12	-864.865E-3	26.2129E-3
-216.535E-3	-4.35626E-12	-216.877E-3	-216.535E-3	-126.766E-3	40.0207E-12	-922.720E-3	26.8812E-3
-228.346E-3	-4.56046E-12	-228.707E-3	-228.346E-3	144.745E-3	40.0191E-12	-856.818E-3	25.8068E-3
-240.157E-3	-4.74339E-12	-240.506E-3	-240.157E-3	32.7372E-3	39.9933E-12	-883.051E-3	27.2556E-3
-251.969E-3	-4.85738E-12	-252.327E-3	-251.969E-3	-22.7912E-3	39.9939E-12	-904.036E-3	26.7329E-3
-263.780E-3	-4.96402E-12	-264.088E-3	-263.780E-3	-108.505E-3	39.9808E-12	-956.049E-3	26.8422E-3
-275.591E-3	-5.10574E-12	-275.900E-3	-275.591E-3	48.8760E-3	40.0139E-12	-923.432E-3	24.9455E-3
-287.402E-3	-5.36810E-12	-287.740E-3	-287.402E-3	-97.1290E-3	39.9806E-12	-985.627E-3	29.6484E-3
-299.213E-3	-5.39335E-12	-299.520E-3	-299.213E-3	-141.636E-3	40.0350E-12	-1.02465E+0	25.6478E-3
-311.024E-3	-5.69846E-12	-311.354E-3	-311.024E-3	84.0597E-3	40.0521E-12	-943.778E-3	24.5423E-3
-322.835E-3	-5.83319E-12	-323.148E-3	-322.835E-3	48.7782E-3	39.9988E-12	-945.401E-3	25.5645E-3
-334.646E-3	-6.03669E-12	-334.925E-3	-334.646E-3	-113.536E-3	40.0001E-12	-1.01846E+0	27.2919E-3
-346.457E-3	-6.21344E-12	-346.742E-3	-346.457E-3	-55.9132E-3	40.0167E-12	-1.02976E+0	26.5765E-3
-358.268E-3	-6.45750E-12	-358.577E-3	-358.268E-3	75.6210E-3	39.9893E-12	-974.169E-3	30.0108E-3
-370.079E-3	-6.59418E-12	-370.375E-3	-370.079E-3	-6.28040E-3	40.0160E-12	-992.885E-3	28.2621E-3
-381.890E-3	-6.67646E-12	-382.150E-3	-381.890E-3	120.720E-6	40.0040E-12	-972.354E-3	28.0962E-3
-393.701E-3	-6.84226E-12	-394.020E-3	-393.701E-3	-170.438E-3	40.0074E-12	-1.05745E+0	28.8680E-3
-405.512E-3	-6.99830E-12	-405.833E-3	-405.512E-3	28.1790E-3	39.9643E-12	-1.01803E+0	27.6396E-3
-417.323E-3	-7.28157E-12	-417.627E-3	-417.323E-3	-40.0269E-3	40.0619E-12	-1.04732E+0	24.9767E-3
-429.134E-3	-7.33579E-12	-429.450E-3	-429.134E-3	-159.194E-3	40.0504E-12	-1.09323E+0	24.0378E-3
-440.945E-3	-7.50323E-12	-441.251E-3	-440.945E-3	28.1317E-3	40.0167E-12	-1.05179E+0	26.6554E-3
-452.756E-3	-7.51853E-12	-453.053E-3	-452.756E-3	78.8522E-3	39.9771E-12	-1.02289E+0	26.5504E-3
-464.567E-3	-7.64170E-12	-464.872E-3	-464.567E-3	-104.455E-3	39.9436E-12	-1.08531E+0	25.6445E-3
-476.378E-3	-7.83285E-12	-476.694E-3	-476.378E-3	-118.196E-3	40.0008E-12	-1.12529E+0	27.9164E-3
-488.189E-3	-7.88521E-12	-488.430E-3	-488.189E-3	116.538E-3	40.0126E-12	-1.04766E+0	25.2111E-3
-500.000E-3	-7.98163E-12	-500.268E-3	-500.000E-3	-26.3070E-3	39.9520E-12	-1.10092E+0	27.4741E-3
