Experiment	bias spectroscopy	
Date	30.11.2015 18:49:23	
User		
X (m)	28.5846E-9	
Y (m)	-166.333E-9	
Z (m)	-3.75578E-9	
Z offset (m)	0E+0	
Settling time (s)	30E-3	
Integration time (s)	200E-3	
Z-Ctrl hold	TRUE	
Final Z (m)	-3.75578E-9	
Filter type	None	
Order		
Cutoff frq		
Current (A)	49.9465E-12	
Z (m)	-3.75578E-9	
Phase (deg)	116.332E-3	
Amplitude (m)	39.9111E-12	
Frequency Shift (Hz)	-723.221E-3	
Excitation (V)	33.7903E-3	

[DATA]
Bias calc (V)	Current (A)	Applied Voltage measured (V)	Bias (V)	Phase (deg)	Amplitude (m)	Frequency Shift (Hz)	Excitation (V)
1.00000E+0	50.3658E-12	999.324E-3	1.00000E+0	-122.516E-3	40.0308E-12	-772.056E-3	23.1437E-3
988.189E-3	49.8243E-12	987.533E-3	988.189E-3	-115.168E-3	39.9960E-12	-780.280E-3	25.3914E-3
976.378E-3	48.8627E-12	975.771E-3	976.378E-3	92.7258E-3	40.0580E-12	-719.091E-3	24.6922E-3
964.567E-3	47.7919E-12	963.908E-3	964.567E-3	-2.78550E-3	39.9258E-12	-730.616E-3	30.3443E-3
952.756E-3	47.7424E-12	952.148E-3	952.756E-3	65.7146E-3	40.0053E-12	-684.750E-3	24.2889E-3
940.945E-3	46.6377E-12	940.312E-3	940.945E-3	-44.3234E-3	40.0028E-12	-727.163E-3	27.5023E-3
929.134E-3	45.9702E-12	928.491E-3	929.134E-3	-43.5490E-3	40.0034E-12	-751.916E-3	25.9881E-3
917.323E-3	45.7288E-12	916.742E-3	917.323E-3	50.6597E-3	40.0599E-12	-711.290E-3	22.4622E-3
905.512E-3	45.3592E-12	904.888E-3	905.512E-3	-239.427E-3	39.9706E-12	-827.038E-3	24.2289E-3
893.701E-3	44.5161E-12	893.137E-3	893.701E-3	61.1233E-3	39.9767E-12	-734.235E-3	21.9120E-3
881.890E-3	43.5670E-12	881.293E-3	881.890E-3	216.533E-3	39.8917E-12	-652.678E-3	27.1221E-3
870.079E-3	43.7202E-12	869.480E-3	870.079E-3	56.2953E-3	40.0161E-12	-657.549E-3	25.9869E-3
858.268E-3	42.3750E-12	857.658E-3	858.268E-3	-81.7825E-3	39.9527E-12	-744.234E-3	25.1889E-3
846.457E-3	42.3398E-12	845.831E-3	846.457E-3	131.400E-3	39.9686E-12	-668.924E-3	26.7663E-3
834.646E-3	41.4698E-12	834.062E-3	834.646E-3	-13.5461E-3	40.0005E-12	-707.117E-3	26.1173E-3
822.835E-3	41.2494E-12	822.251E-3	822.835E-3	18.2927E-3	39.9708E-12	-689.794E-3	27.3710E-3
811.024E-3	41.2104E-12	810.421E-3	811.024E-3	73.0290E-3	39.9682E-12	-676.552E-3	26.3037E-3
799.213E-3	40.6164E-12	798.656E-3	799.213E-3	-151.853E-3	40.0749E-12	-734.957E-3	24.1364E-3
787.402E-3	39.7510E-12	786.817E-3	787.402E-3	24.5420E-3	39.9549E-12	-692.719E-3	26.0443E-3
775.591E-3	38.8459E-12	775.031E-3	775.591E-3	159.171E-3	39.9909E-12	-625.536E-3	28.4362E-3
763.780E-3	38.6109E-12	763.200E-3	763.780E-3	-165.505E-3	40.0763E-12	-723.787E-3	23.7569E-3
751.969E-3	37.9778E-12	751.428E-3	751.969E-3	165.644E-3	40.0422E-12	-646.291E-3	21.8354E-3
740.157E-3	37.4270E-12	739.634E-3	740.157E-3	36.3396E-3	39.9301E-12	-679.894E-3	27.3254E-3
728.346E-3	37.2255E-12	727.781E-3	728.346E-3	250.296E-3	39.9426E-12	-573.568E-3	28.9973E-3
716.535E-3	36.2905E-12	716.000E-3	716.535E-3	-126.216E-3	40.0606E-12	-661.275E-3	23.4182E-3
704.724E-3	35.9287E-12	704.308E-3	704.724E-3	65.3035E-3	40.0313E-12	-600.183E-3	26.3076E-3
692.913E-3	34.9353E-12	692.509E-3	692.913E-3	-15.2520E-3	39.9159E-12	-640.479E-3	26.7320E-3
681.102E-3	34.3602E-12	680.739E-3	681.102E-3	-232.816E-3	39.9976E-12	-703.452E-3	27.1835E-3
669.291E-3	34.0844E-12	668.923E-3	669.291E-3	23.5963E-3	39.9812E-12	-646.317E-3	24.8518E-3
657.480E-3	33.8017E-12	657.077E-3	657.480E-3	145.353E-3	40.0886E-12	-584.203E-3	25.2871E-3
645.669E-3	32.8782E-12	645.265E-3	645.669E-3	-254.385E-3	39.9381E-12	-708.110E-3	26.3577E-3
633.858E-3	32.6380E-12	633.462E-3	633.858E-3	117.230E-3	40.0297E-12	-589.742E-3	24.3601E-3
622.047E-3	32.0380E-12	621.659E-3	622.047E-3	45.8024E-3	39.9628E-12	-600.219E-3	24.8243E-3
610.236E-3	31.5500E-12	609.890E-3	610.236E-3	-41.7522E-3	39.9284E-12	-606.823E-3	27.7543E-3
598.425E-3	30.8056E-12	598.071E-3	598.425E-3	-17.9599E-3	39.9889E-12	-613.280E-3	23.3852E-3
586.614E-3	30.1236E-12	586.268E-3	586.614E-3	-223.559E-3	40.0235E-12	-698.123E-3	23.6167E-3
574.803E-3	29.6236E-12	574.452E-3	574.803E-3	-115.251E-3	40.0039E-12	-685.507E-3	24.7005E-3
562.992E-3	29.0672E-12	562.680E-3	562.992E-3	103.796E-3	40.0025E-12	-616.162E-3	24.2862E-3
551.181E-3	28.6969E-12	550.862E-3	551.181E-3	126.372E-3	40.0146E-12	-585.283E-3	23.5274E-3
539.370E-3	28.0264E-12	538.999E-3	539.370E-3	42.2612E-3	40.0638E-12	-615.957E-3	24.9835E-3
527.559E-3	27.1816E-12	527.210E-3	527.559E-3	52.1154E-3	39.9681E-12	-585.653E-3	25.6952E-3
515.748E-3	26.9000E-12	515.386E-3	515.748E-3	77.6816E-3	40.0874E-12	-598.023E-3	26.3901E-3
503.937E-3	26.2625E-12	503.596E-3	503.937E-3	1.44678E-3	39.9632E-12	-619.080E-3	24.4174E-3
492.126E-3	25.4041E-12	491.769E-3	492.126E-3	-51.2255E-3	39.9766E-12	-664.558E-3	26.4803E-3
480.315E-3	25.1005E-12	479.962E-3	480.315E-3	-87.3116E-3	39.9812E-12	-686.731E-3	25.1630E-3
468.504E-3	24.3354E-12	468.162E-3	468.504E-3	-1.93803E-3	40.0526E-12	-657.483E-3	21.7375E-3
456.693E-3	23.6774E-12	456.346E-3	456.693E-3	42.5225E-3	40.0348E-12	-637.802E-3	27.0101E-3
444.882E-3	23.1681E-12	444.574E-3	444.882E-3	5.39819E-3	39.9936E-12	-645.322E-3	25.1982E-3
433.071E-3	22.6825E-12	432.749E-3	433.071E-3	-74.3344E-3	39.9618E-12	-667.504E-3	27.0008E-3
421.260E-3	22.1112E-12	420.941E-3	421.260E-3	144.224E-3	40.0640E-12	-584.622E-3	23.7977E-3
409.449E-3	21.3947E-12	409.151E-3	409.449E-3	71.9239E-3	39.9279E-12	-600.214E-3	27.8761E-3
397.638E-3	20.7188E-12	397.304E-3	397.638E-3	-31.4907E-3	39.9790E-12	-606.983E-3	27.2466E-3
385.827E-3	20.1089E-12	385.546E-3	385.827E-3	-18.7635E-3	40.0731E-12	-628.400E-3	25.9041E-3
374.016E-3	19.5909E-12	373.695E-3	374.016E-3	-43.2952E-3	39.9922E-12	-643.126E-3	25.5366E-3
362.205E-3	18.8506E-12	361.895E-3	362.205E-3	-101.200E-3	39.9689E-12	-687.033E-3	29.6197E-3
350.394E-3	18.3274E-12	350.146E-3	350.394E-3	29.3316E-3	39.9889E-12	-654.303E-3	27.0669E-3
338.583E-3	17.8922E-12	338.289E-3	338.583E-3	86.2174E-3	40.0937E-12	-632.182E-3	24.7787E-3
326.772E-3	17.1444E-12	326.490E-3	326.772E-3	121.779E-3	39.9687E-12	-636.226E-3	25.5780E-3
314.961E-3	16.7339E-12	314.664E-3	314.961E-3	-61.0829E-3	40.0528E-12	-690.977E-3	23.8422E-3
303.150E-3	15.9661E-12	302.851E-3	303.150E-3	35.4831E-3	39.9499E-12	-662.439E-3	25.0967E-3
291.339E-3	15.4802E-12	291.100E-3	291.339E-3	92.5795E-3	40.0060E-12	-627.637E-3	26.0666E-3
279.528E-3	14.7700E-12	279.269E-3	279.528E-3	189.487E-3	39.9544E-12	-600.499E-3	30.1860E-3
267.717E-3	14.0883E-12	267.461E-3	267.717E-3	-55.8229E-3	39.9749E-12	-677.022E-3	24.8935E-3
255.906E-3	13.5947E-12	255.631E-3	255.906E-3	-26.4648E-3	39.9881E-12	-661.834E-3	25.7606E-3
244.094E-3	12.9769E-12	243.856E-3	244.094E-3	8.41384E-3	39.9961E-12	-668.635E-3	24.2920E-3
232.283E-3	12.3518E-12	232.012E-3	232.283E-3	-98.7131E-6	40.0106E-12	-672.294E-3	28.8422E-3
220.472E-3	11.4298E-12	220.179E-3	220.472E-3	81.5902E-3	39.9671E-12	-658.555E-3	26.3409E-3
208.661E-3	10.7763E-12	208.399E-3	208.661E-3	-128.492E-3	40.0504E-12	-728.094E-3	25.9504E-3
196.850E-3	10.1295E-12	196.576E-3	196.850E-3	-13.3480E-3	40.0187E-12	-717.331E-3	23.5147E-3
185.039E-3	9.20652E-12	184.806E-3	185.039E-3	30.2958E-3	39.9563E-12	-693.826E-3	25.9341E-3
173.228E-3	8.58223E-12	173.001E-3	173.228E-3	-8.88276E-3	40.0462E-12	-710.352E-3	23.3894E-3
161.417E-3	7.93034E-12	161.157E-3	161.417E-3	24.0625E-3	40.0704E-12	-690.231E-3	23.1180E-3
149.606E-3	7.21867E-12	149.331E-3	149.606E-3	-68.6376E-3	39.9498E-12	-732.284E-3	31.8338E-3
137.795E-3	6.57546E-12	137.546E-3	137.795E-3	104.347E-3	40.0717E-12	-688.903E-3	27.4251E-3
125.984E-3	5.93915E-12	125.775E-3	125.984E-3	111.429E-3	39.9795E-12	-685.540E-3	27.3896E-3
114.173E-3	5.34788E-12	113.927E-3	114.173E-3	-107.336E-3	40.0035E-12	-752.407E-3	25.0060E-3
102.362E-3	4.70211E-12	102.135E-3	102.362E-3	-55.1350E-3	39.9736E-12	-776.815E-3	27.2228E-3
90.5512E-3	4.07272E-12	90.3291E-3	90.5512E-3	-60.2257E-3	40.0386E-12	-790.721E-3	24.7891E-3
78.7402E-3	3.48883E-12	78.4898E-3	78.7402E-3	12.6790E-3	40.0168E-12	-754.925E-3	26.2851E-3
66.9291E-3	2.91504E-12	66.6243E-3	66.9291E-3	59.5196E-3	39.9723E-12	-746.106E-3	26.1511E-3
55.1181E-3	2.40089E-12	54.8478E-3	55.1181E-3	-10.2971E-3	40.0021E-12	-763.955E-3	27.3845E-3
43.3071E-3	1.85984E-12	43.0265E-3	43.3071E-3	-69.2567E-3	40.0212E-12	-776.868E-3	26.4537E-3
31.4961E-3	1.33074E-12	31.2027E-3	31.4961E-3	32.4361E-3	39.9482E-12	-748.907E-3	26.4782E-3
19.6850E-3	830.483E-15	19.3998E-3	19.6850E-3	12.6721E-3	40.0525E-12	-749.876E-3	26.2291E-3
7.87402E-3	275.392E-15	7.55380E-3	7.87402E-3	-121.454E-3	40.0854E-12	-818.263E-3	24.6859E-3
-3.93701E-3	-281.767E-15	-4.32278E-3	-3.93701E-3	159.059E-3	39.9792E-12	-743.746E-3	25.3157E-3
-15.7480E-3	-814.314E-15	-16.0974E-3	-15.7480E-3	-51.4430E-3	39.9999E-12	-791.951E-3	26.2289E-3
-27.5591E-3	-1.33954E-12	-27.9177E-3	-27.5591E-3	-26.9379E-3	39.9799E-12	-816.442E-3	28.9979E-3
-39.3701E-3	-1.84445E-12	-39.6858E-3	-39.3701E-3	54.3834E-3	40.0248E-12	-774.247E-3	22.8113E-3
-51.1811E-3	-2.29380E-12	-51.5434E-3	-51.1811E-3	32.1917E-3	39.9786E-12	-791.993E-3	26.0569E-3
-62.9921E-3	-2.78918E-12	-63.3208E-3	-62.9921E-3	-19.0462E-3	40.0365E-12	-819.700E-3	21.3186E-3
-74.8032E-3	-3.07908E-12	-75.1578E-3	-74.8032E-3	-85.3632E-3	40.0531E-12	-853.126E-3	25.4885E-3
-86.6142E-3	-3.32229E-12	-87.0152E-3	-86.6142E-3	-27.7940E-3	40.0292E-12	-826.401E-3	26.3402E-3
-98.4252E-3	-3.46961E-12	-98.7834E-3	-98.4252E-3	1.39728E-3	39.9646E-12	-841.738E-3	23.7890E-3
-110.236E-3	-3.70298E-12	-110.638E-3	-110.236E-3	-107.039E-3	40.0253E-12	-872.324E-3	25.0286E-3
-122.047E-3	-3.85513E-12	-122.380E-3	-122.047E-3	3.90865E-3	39.9864E-12	-837.373E-3	26.1822E-3
-133.858E-3	-4.07828E-12	-134.234E-3	-133.858E-3	-125.941E-3	40.0247E-12	-885.147E-3	26.3411E-3
-145.669E-3	-4.18116E-12	-146.039E-3	-145.669E-3	21.5379E-3	39.9873E-12	-852.168E-3	29.9203E-3
-157.480E-3	-4.31779E-12	-157.816E-3	-157.480E-3	-85.9452E-3	39.9393E-12	-909.900E-3	27.7668E-3
-169.291E-3	-4.51601E-12	-169.679E-3	-169.291E-3	-32.1105E-3	40.0398E-12	-906.189E-3	27.4310E-3
-181.102E-3	-4.67622E-12	-181.431E-3	-181.102E-3	22.4707E-3	40.0220E-12	-892.015E-3	26.4270E-3
-192.913E-3	-4.86567E-12	-193.235E-3	-192.913E-3	6.22225E-3	39.9884E-12	-900.391E-3	27.0131E-3
-204.724E-3	-5.05682E-12	-205.067E-3	-204.724E-3	124.909E-3	39.9661E-12	-858.853E-3	27.9885E-3
-216.535E-3	-5.23783E-12	-216.862E-3	-216.535E-3	-64.4350E-3	40.0242E-12	-939.605E-3	27.7455E-3
-228.346E-3	-5.49253E-12	-228.683E-3	-228.346E-3	-136.368E-3	40.0096E-12	-989.729E-3	26.0829E-3
-240.157E-3	-5.68141E-12	-240.477E-3	-240.157E-3	17.9679E-3	39.9648E-12	-930.704E-3	28.6216E-3
-251.969E-3	-5.88020E-12	-252.294E-3	-251.969E-3	-8.15120E-3	39.9661E-12	-941.227E-3	30.2193E-3
-263.780E-3	-6.14004E-12	-264.062E-3	-263.780E-3	79.2542E-3	40.0522E-12	-909.519E-3	29.4800E-3
-275.591E-3	-6.28274E-12	-275.873E-3	-275.591E-3	-9.46761E-3	40.0826E-12	-918.768E-3	24.2946E-3
-287.402E-3	-6.48332E-12	-287.708E-3	-287.402E-3	-95.0163E-3	39.9413E-12	-970.036E-3	30.3804E-3
-299.213E-3	-6.69356E-12	-299.497E-3	-299.213E-3	31.9552E-3	40.0128E-12	-943.794E-3	28.0166E-3
-311.024E-3	-6.90244E-12	-311.336E-3	-311.024E-3	-86.7820E-3	40.0316E-12	-983.006E-3	26.9330E-3
-322.835E-3	-7.25506E-12	-323.129E-3	-322.835E-3	2.92596E-3	39.9647E-12	-978.172E-3	27.1426E-3
-334.646E-3	-7.41481E-12	-334.899E-3	-334.646E-3	-121.082E-3	40.0089E-12	-1.02648E+0	27.3413E-3
-346.457E-3	-7.71098E-12	-346.715E-3	-346.457E-3	-53.7674E-3	39.9523E-12	-1.00999E+0	30.6454E-3
-358.268E-3	-7.76205E-12	-358.555E-3	-358.268E-3	-45.1715E-3	39.9681E-12	-1.03232E+0	27.7135E-3
-370.079E-3	-8.23177E-12	-370.357E-3	-370.079E-3	9.21233E-3	40.0006E-12	-1.01477E+0	27.2807E-3
-381.890E-3	-8.46245E-12	-382.133E-3	-381.890E-3	-7.29188E-3	40.0034E-12	-1.02218E+0	24.7142E-3
-393.701E-3	-8.53413E-12	-394.001E-3	-393.701E-3	-162.633E-3	39.9676E-12	-1.07636E+0	30.0341E-3
-405.512E-3	-8.87980E-12	-405.818E-3	-405.512E-3	-66.0581E-3	40.0167E-12	-1.09916E+0	26.6150E-3
-417.323E-3	-9.03021E-12	-417.615E-3	-417.323E-3	75.5818E-3	39.9923E-12	-1.05744E+0	27.6523E-3
-429.134E-3	-9.18565E-12	-429.412E-3	-429.134E-3	-67.5178E-3	39.9868E-12	-1.08164E+0	27.6177E-3
-440.945E-3	-9.20114E-12	-441.218E-3	-440.945E-3	9.94200E-3	39.9460E-12	-1.07714E+0	28.6343E-3
-452.756E-3	-9.53248E-12	-453.024E-3	-452.756E-3	-132.630E-3	39.9842E-12	-1.13779E+0	27.8670E-3
-464.567E-3	-9.63844E-12	-464.854E-3	-464.567E-3	8.88991E-3	40.0091E-12	-1.10527E+0	26.1981E-3
-476.378E-3	-9.80290E-12	-476.672E-3	-476.378E-3	-26.7108E-3	40.0240E-12	-1.13742E+0	28.9770E-3
-488.189E-3	-9.86205E-12	-488.407E-3	-488.189E-3	-11.6321E-3	39.9980E-12	-1.12599E+0	27.5151E-3
-500.000E-3	-10.1321E-12	-500.249E-3	-500.000E-3	44.1603E-3	40.0518E-12	-1.11490E+0	24.2775E-3
