Experiment	bias spectroscopy	
Date	30.11.2015 22:12:18	
User		
X (m)	29.2281E-9	
Y (m)	-165.122E-9	
Z (m)	-3.75578E-9	
Z offset (m)	0E+0	
Settling time (s)	30E-3	
Integration time (s)	200E-3	
Z-Ctrl hold	TRUE	
Final Z (m)	-3.75578E-9	
Filter type	None	
Order		
Cutoff frq		
Current (A)	27.708E-12	
Z (m)	-3.75578E-9	
Phase (deg)	-557.231E-3	
Amplitude (m)	39.3166E-12	
Frequency Shift (Hz)	-1.01242E+0	
Excitation (V)	46.1733E-3	

[DATA]
Bias calc (V)	Current (A)	Applied Voltage measured (V)	Bias (V)	Phase (deg)	Amplitude (m)	Frequency Shift (Hz)	Excitation (V)
1.00000E+0	28.1261E-12	999.337E-3	1.00000E+0	-45.9499E-3	39.9907E-12	-837.525E-3	25.8711E-3
988.189E-3	27.3843E-12	987.535E-3	988.189E-3	-30.4277E-3	40.0687E-12	-836.307E-3	22.4197E-3
976.378E-3	26.8668E-12	975.777E-3	976.378E-3	-51.7578E-3	40.0153E-12	-844.918E-3	26.1396E-3
964.567E-3	26.7620E-12	963.919E-3	964.567E-3	-46.1694E-3	40.0012E-12	-859.486E-3	27.3241E-3
952.756E-3	26.3395E-12	952.160E-3	952.756E-3	149.848E-3	39.9730E-12	-780.506E-3	26.7589E-3
940.945E-3	25.8948E-12	940.318E-3	940.945E-3	-75.3534E-3	39.9724E-12	-832.687E-3	26.2432E-3
929.134E-3	25.4476E-12	928.501E-3	929.134E-3	14.1872E-3	40.0019E-12	-803.392E-3	26.6372E-3
917.323E-3	25.2455E-12	916.757E-3	917.323E-3	56.3879E-3	40.0083E-12	-798.637E-3	26.6481E-3
905.512E-3	24.7533E-12	904.903E-3	905.512E-3	-13.4456E-3	40.0030E-12	-818.868E-3	25.0288E-3
893.701E-3	24.3513E-12	893.134E-3	893.701E-3	174.004E-3	39.9380E-12	-752.648E-3	29.2179E-3
881.890E-3	24.0669E-12	881.298E-3	881.890E-3	-100.030E-3	39.9467E-12	-829.671E-3	29.5655E-3
870.079E-3	23.8910E-12	869.497E-3	870.079E-3	96.6158E-3	39.9945E-12	-778.740E-3	28.0387E-3
858.268E-3	23.3401E-12	857.663E-3	858.268E-3	174.897E-3	40.0484E-12	-715.158E-3	26.1463E-3
846.457E-3	23.2037E-12	845.836E-3	846.457E-3	-78.7534E-3	39.9745E-12	-791.928E-3	25.8053E-3
834.646E-3	23.0135E-12	834.057E-3	834.646E-3	17.3910E-3	40.1220E-12	-769.316E-3	21.2921E-3
822.835E-3	22.3658E-12	822.244E-3	822.835E-3	-38.0299E-3	39.9815E-12	-783.193E-3	25.8081E-3
811.024E-3	22.1153E-12	810.413E-3	811.024E-3	30.4781E-3	39.9882E-12	-770.911E-3	20.9967E-3
799.213E-3	17.0495E-12	798.645E-3	799.213E-3	-353.899E-3	39.9259E-12	-895.825E-3	25.2128E-3
787.402E-3	18.5629E-12	786.821E-3	787.402E-3	245.449E-3	40.0094E-12	-758.033E-3	27.8702E-3
775.591E-3	20.0197E-12	775.035E-3	775.591E-3	-174.409E-3	39.9527E-12	-840.716E-3	29.9037E-3
763.780E-3	17.5291E-12	763.201E-3	763.780E-3	106.313E-3	40.0288E-12	-825.275E-3	27.2606E-3
751.969E-3	17.9608E-12	751.422E-3	751.969E-3	-67.6632E-3	39.9414E-12	-817.285E-3	27.4410E-3
740.157E-3	15.3613E-12	739.623E-3	740.157E-3	272.498E-3	39.9659E-12	-750.747E-3	30.7414E-3
728.346E-3	17.4754E-12	727.793E-3	728.346E-3	44.2451E-3	39.9948E-12	-776.940E-3	27.3963E-3
716.535E-3	11.9342E-12	716.011E-3	716.535E-3	-479.453E-3	39.9920E-12	-1.01508E+0	27.5908E-3
704.724E-3	16.4671E-12	704.326E-3	704.724E-3	416.682E-3	40.0305E-12	-752.508E-3	25.8259E-3
692.913E-3	18.7310E-12	692.523E-3	692.913E-3	180.771E-3	39.9869E-12	-728.100E-3	26.0199E-3
681.102E-3	18.3470E-12	680.741E-3	681.102E-3	150.746E-3	39.9243E-12	-730.786E-3	25.9816E-3
669.291E-3	17.9784E-12	668.915E-3	669.291E-3	179.930E-3	39.9729E-12	-669.143E-3	26.3873E-3
657.480E-3	17.8350E-12	657.075E-3	657.480E-3	-77.2087E-3	40.0422E-12	-757.619E-3	26.3130E-3
645.669E-3	17.2681E-12	645.277E-3	645.669E-3	114.963E-3	39.9944E-12	-695.421E-3	26.5857E-3
633.858E-3	16.8906E-12	633.468E-3	633.858E-3	-16.5664E-3	39.9929E-12	-723.949E-3	26.3389E-3
622.047E-3	16.5602E-12	621.662E-3	622.047E-3	-64.3073E-3	39.9809E-12	-773.852E-3	24.5205E-3
610.236E-3	16.1410E-12	609.896E-3	610.236E-3	52.8022E-3	39.9942E-12	-751.559E-3	26.8133E-3
598.425E-3	15.7314E-12	598.084E-3	598.425E-3	-118.914E-3	40.0089E-12	-786.002E-3	24.7302E-3
586.614E-3	15.5563E-12	586.280E-3	586.614E-3	93.4213E-3	39.9692E-12	-692.961E-3	27.3277E-3
574.803E-3	15.2792E-12	574.466E-3	574.803E-3	-73.8400E-3	39.9686E-12	-736.995E-3	27.5238E-3
562.992E-3	14.9724E-12	562.685E-3	562.992E-3	-52.1387E-3	39.9505E-12	-743.717E-3	27.3146E-3
551.181E-3	14.6679E-12	550.874E-3	551.181E-3	-75.9204E-3	40.0551E-12	-754.359E-3	24.3443E-3
539.370E-3	14.1080E-12	538.998E-3	539.370E-3	171.418E-3	40.0090E-12	-681.703E-3	27.4183E-3
527.559E-3	13.7322E-12	527.224E-3	527.559E-3	150.803E-3	40.0555E-12	-661.101E-3	24.8290E-3
515.748E-3	13.4111E-12	515.390E-3	515.748E-3	55.5775E-3	39.9403E-12	-666.588E-3	28.4447E-3
503.937E-3	13.1368E-12	503.608E-3	503.937E-3	37.3956E-3	40.0342E-12	-678.739E-3	26.6055E-3
492.126E-3	12.8613E-12	491.782E-3	492.126E-3	78.0058E-3	40.0464E-12	-666.119E-3	24.6581E-3
480.315E-3	12.5073E-12	479.976E-3	480.315E-3	-79.4263E-3	39.9373E-12	-728.655E-3	29.0775E-3
468.504E-3	12.1434E-12	468.181E-3	468.504E-3	-104.352E-3	40.1118E-12	-759.432E-3	23.4055E-3
456.693E-3	11.7308E-12	456.374E-3	456.693E-3	-83.9946E-3	39.9901E-12	-777.946E-3	25.0260E-3
444.882E-3	11.4778E-12	444.604E-3	444.882E-3	120.482E-3	40.0529E-12	-704.283E-3	23.5660E-3
433.071E-3	11.1838E-12	432.774E-3	433.071E-3	-4.00545E-3	39.9816E-12	-696.752E-3	25.6109E-3
421.260E-3	10.8352E-12	420.956E-3	421.260E-3	-168.057E-3	40.0080E-12	-784.273E-3	23.8960E-3
409.449E-3	10.3868E-12	409.176E-3	409.449E-3	36.4760E-3	39.9559E-12	-712.792E-3	27.4466E-3
397.638E-3	9.98144E-12	397.326E-3	397.638E-3	-17.5323E-3	39.9704E-12	-738.908E-3	26.6706E-3
385.827E-3	10.0451E-12	385.569E-3	385.827E-3	30.1354E-3	40.0474E-12	-734.816E-3	25.4506E-3
374.016E-3	7.72267E-12	373.730E-3	374.016E-3	-218.350E-3	40.0291E-12	-811.226E-3	25.1788E-3
362.205E-3	7.27635E-12	361.936E-3	362.205E-3	20.7711E-3	40.0018E-12	-819.378E-3	24.9995E-3
350.394E-3	8.96583E-12	350.184E-3	350.394E-3	184.960E-3	39.9264E-12	-711.115E-3	28.6573E-3
338.583E-3	8.69433E-12	338.329E-3	338.583E-3	-37.7435E-3	40.0147E-12	-764.169E-3	29.4898E-3
326.772E-3	8.38946E-12	326.534E-3	326.772E-3	79.1057E-3	40.0468E-12	-715.065E-3	24.7361E-3
314.961E-3	7.94640E-12	314.699E-3	314.961E-3	112.248E-3	39.9679E-12	-678.087E-3	27.4154E-3
303.150E-3	7.73369E-12	302.869E-3	303.150E-3	-181.710E-3	40.0421E-12	-765.440E-3	27.0417E-3
291.339E-3	7.32816E-12	291.129E-3	291.339E-3	-116.111E-3	39.9593E-12	-772.186E-3	27.5912E-3
279.528E-3	7.01264E-12	279.305E-3	279.528E-3	-21.7972E-3	40.0201E-12	-744.174E-3	25.7304E-3
267.717E-3	6.63356E-12	267.489E-3	267.717E-3	-65.1281E-3	39.9738E-12	-782.027E-3	28.1340E-3
255.906E-3	6.35969E-12	255.662E-3	255.906E-3	20.0839E-3	39.9814E-12	-761.645E-3	26.4032E-3
244.094E-3	5.96731E-12	243.883E-3	244.094E-3	76.8512E-3	40.0659E-12	-745.234E-3	24.8314E-3
232.283E-3	5.72044E-12	232.030E-3	232.283E-3	70.5076E-3	40.0068E-12	-719.422E-3	26.3960E-3
220.472E-3	5.38276E-12	220.203E-3	220.472E-3	-141.586E-3	40.0467E-12	-812.632E-3	28.1821E-3
208.661E-3	5.00446E-12	208.425E-3	208.661E-3	142.629E-3	40.0048E-12	-736.166E-3	26.6017E-3
196.850E-3	3.44312E-12	196.582E-3	196.850E-3	-356.525E-3	39.9811E-12	-901.537E-3	26.7578E-3
185.039E-3	4.38417E-12	184.822E-3	185.039E-3	-22.4823E-3	40.0107E-12	-827.380E-3	26.6340E-3
173.228E-3	4.12766E-12	173.011E-3	173.228E-3	110.506E-3	40.0274E-12	-773.010E-3	26.2479E-3
161.417E-3	3.73416E-12	161.175E-3	161.417E-3	51.5266E-3	39.9737E-12	-771.624E-3	24.7861E-3
149.606E-3	3.43871E-12	149.355E-3	149.606E-3	-91.9474E-3	40.0578E-12	-829.177E-3	24.6275E-3
137.795E-3	3.11516E-12	137.561E-3	137.795E-3	6.71543E-3	39.9457E-12	-790.783E-3	27.1438E-3
125.984E-3	2.83513E-12	125.789E-3	125.984E-3	-9.97769E-3	39.9920E-12	-803.898E-3	29.6932E-3
114.173E-3	2.52973E-12	113.965E-3	114.173E-3	94.7210E-3	40.0292E-12	-755.449E-3	26.4694E-3
102.362E-3	2.22460E-12	102.162E-3	102.362E-3	-107.569E-3	40.0442E-12	-829.786E-3	24.9075E-3
90.5512E-3	1.92885E-12	90.3522E-3	90.5512E-3	32.7365E-3	39.9189E-12	-799.967E-3	30.3113E-3
78.7402E-3	1.62826E-12	78.5235E-3	78.7402E-3	21.7556E-3	40.0583E-12	-788.370E-3	22.2542E-3
66.9291E-3	1.34575E-12	66.6443E-3	66.9291E-3	-76.2902E-3	39.9612E-12	-826.641E-3	26.0342E-3
55.1181E-3	1.06314E-12	54.8745E-3	55.1181E-3	-55.9082E-3	40.0089E-12	-832.384E-3	27.0549E-3
43.3071E-3	774.868E-15	43.0438E-3	43.3071E-3	-57.3080E-3	40.0224E-12	-874.170E-3	24.2548E-3
31.4961E-3	520.782E-15	31.2156E-3	31.4961E-3	89.0389E-3	40.0261E-12	-819.839E-3	26.1602E-3
19.6850E-3	269.980E-15	19.4196E-3	19.6850E-3	-66.5653E-3	40.0559E-12	-869.543E-3	24.6416E-3
7.87402E-3	19.7555E-15	7.56665E-3	7.87402E-3	-124.219E-3	40.0153E-12	-912.537E-3	27.5609E-3
-3.93701E-3	-209.851E-15	-4.32018E-3	-3.93701E-3	34.6062E-3	39.9354E-12	-873.108E-3	27.0019E-3
-15.7480E-3	-430.124E-15	-16.1132E-3	-15.7480E-3	-5.09382E-3	40.0292E-12	-878.243E-3	27.5925E-3
-27.5591E-3	-658.401E-15	-27.9148E-3	-27.5591E-3	84.8048E-3	39.9565E-12	-852.028E-3	26.7578E-3
-39.3701E-3	-883.004E-15	-39.6955E-3	-39.3701E-3	-20.1450E-3	40.0497E-12	-871.959E-3	26.1353E-3
-51.1811E-3	-1.11302E-12	-51.5513E-3	-51.1811E-3	-175.471E-3	40.0842E-12	-936.092E-3	24.9694E-3
-62.9921E-3	-1.34125E-12	-63.3170E-3	-62.9921E-3	65.6148E-3	40.0044E-12	-865.135E-3	25.0169E-3
-74.8032E-3	-1.52383E-12	-75.1546E-3	-74.8032E-3	56.5310E-3	40.0063E-12	-870.742E-3	25.8218E-3
-86.6142E-3	-1.64853E-12	-87.0185E-3	-86.6142E-3	-36.0136E-3	39.9461E-12	-894.174E-3	25.7162E-3
-98.4252E-3	-1.78509E-12	-98.7879E-3	-98.4252E-3	-83.0996E-3	40.0222E-12	-920.941E-3	25.7549E-3
-110.236E-3	-1.91437E-12	-110.645E-3	-110.236E-3	-89.7140E-3	40.0426E-12	-945.984E-3	24.9450E-3
-122.047E-3	-2.02717E-12	-122.391E-3	-122.047E-3	1.42196E-3	39.9689E-12	-913.670E-3	26.8751E-3
-133.858E-3	-2.11579E-12	-134.248E-3	-133.858E-3	66.3824E-3	40.0133E-12	-897.586E-3	25.5637E-3
-145.669E-3	-2.21770E-12	-146.041E-3	-145.669E-3	-73.9722E-3	39.9896E-12	-947.185E-3	27.9973E-3
-157.480E-3	-2.32780E-12	-157.815E-3	-157.480E-3	-21.0348E-3	39.9425E-12	-938.908E-3	29.4762E-3
-169.291E-3	-2.42654E-12	-169.695E-3	-169.291E-3	112.315E-3	40.0226E-12	-900.022E-3	29.6172E-3
-181.102E-3	-2.57826E-12	-181.433E-3	-181.102E-3	-270.749E-3	40.1389E-12	-1.01985E+0	21.7609E-3
-192.913E-3	-2.60955E-12	-193.243E-3	-192.913E-3	-7.15341E-3	40.0304E-12	-983.486E-3	23.8410E-3
-204.724E-3	-2.70143E-12	-205.069E-3	-204.724E-3	-102.164E-3	39.9555E-12	-1.01572E+0	28.4391E-3
-216.535E-3	-2.85397E-12	-216.869E-3	-216.535E-3	-43.2950E-3	40.0232E-12	-998.154E-3	25.0903E-3
-228.346E-3	-2.94676E-12	-228.691E-3	-228.346E-3	46.9362E-3	40.0137E-12	-960.209E-3	25.0478E-3
-240.157E-3	-3.02978E-12	-240.496E-3	-240.157E-3	-138.650E-3	39.9602E-12	-1.03704E+0	28.1262E-3
-251.969E-3	-3.15719E-12	-252.311E-3	-251.969E-3	-59.7016E-3	39.9604E-12	-1.02788E+0	30.3487E-3
-263.780E-3	-3.25654E-12	-264.082E-3	-263.780E-3	41.0941E-3	39.9913E-12	-1.01205E+0	29.8966E-3
-275.591E-3	-3.34710E-12	-275.893E-3	-275.591E-3	-62.4904E-3	40.0211E-12	-1.02906E+0	27.2538E-3
-287.402E-3	-3.46790E-12	-287.727E-3	-287.402E-3	-131.691E-3	40.0088E-12	-1.07042E+0	26.5494E-3
-299.213E-3	-3.56245E-12	-299.522E-3	-299.213E-3	92.6507E-3	39.9808E-12	-1.01851E+0	25.7451E-3
-311.024E-3	-3.49713E-12	-311.352E-3	-311.024E-3	-235.928E-3	40.0672E-12	-1.12741E+0	26.1936E-3
-322.835E-3	-2.90860E-12	-323.136E-3	-322.835E-3	-350.431E-3	39.9881E-12	-1.26904E+0	27.8651E-3
-334.646E-3	-3.01865E-12	-334.912E-3	-334.646E-3	-166.156E-3	40.0025E-12	-1.28019E+0	28.1633E-3
-346.457E-3	-3.98190E-12	-346.734E-3	-346.457E-3	273.865E-3	40.0069E-12	-1.13618E+0	29.1910E-3
-358.268E-3	-4.07426E-12	-358.571E-3	-358.268E-3	212.925E-3	40.0456E-12	-1.09538E+0	25.1658E-3
-370.079E-3	-3.84705E-12	-370.370E-3	-370.079E-3	-94.1373E-3	39.8771E-12	-1.16994E+0	32.5069E-3
-381.890E-3	-3.36974E-12	-382.134E-3	-381.890E-3	-419.915E-3	40.0089E-12	-1.38197E+0	29.6004E-3
-393.701E-3	-3.45907E-12	-394.007E-3	-393.701E-3	-24.9124E-3	39.9376E-12	-1.30619E+0	30.6358E-3
-405.512E-3	-3.53848E-12	-405.816E-3	-405.512E-3	-110.820E-3	40.0221E-12	-1.35479E+0	25.8585E-3
-417.323E-3	-4.54558E-12	-417.614E-3	-417.323E-3	319.523E-3	39.9866E-12	-1.21900E+0	30.0523E-3
-429.134E-3	-4.61537E-12	-429.421E-3	-429.134E-3	175.798E-3	40.0152E-12	-1.19778E+0	24.8542E-3
-440.945E-3	-4.89513E-12	-441.228E-3	-440.945E-3	41.8996E-3	40.0049E-12	-1.21515E+0	26.0890E-3
-452.756E-3	-4.98637E-12	-453.028E-3	-452.756E-3	-17.7502E-3	40.0298E-12	-1.21216E+0	26.6855E-3
-464.567E-3	-5.07969E-12	-464.863E-3	-464.567E-3	48.4023E-3	39.9449E-12	-1.18105E+0	27.4023E-3
-476.378E-3	-5.16282E-12	-476.691E-3	-476.378E-3	-58.4719E-3	40.0206E-12	-1.23548E+0	26.1663E-3
-488.189E-3	-5.22667E-12	-488.418E-3	-488.189E-3	84.4500E-3	39.9900E-12	-1.21561E+0	25.5350E-3
-500.000E-3	-5.28245E-12	-500.255E-3	-500.000E-3	48.9765E-3	39.9990E-12	-1.21078E+0	26.2004E-3
