Experiment	bias spectroscopy	
Date	01.12.2015 05:30:00	
User		
X (m)	281.334E-9	
Y (m)	-138.526E-9	
Z (m)	-4.07703E-9	
Z offset (m)	0E+0	
Settling time (s)	30E-3	
Integration time (s)	200E-3	
Z-Ctrl hold	TRUE	
Final Z (m)	-4.07703E-9	
Filter type	None	
Order		
Cutoff frq		
Current (A)	16.4275E-12	
Z (m)	-4.07703E-9	
Phase (deg)	233.275E-3	
Amplitude (m)	39.83E-12	
Frequency Shift (Hz)	-1.0134E+0	
Excitation (V)	38.8185E-3	

[DATA]
Bias calc (V)	Current (A)	Applied Voltage measured (V)	Bias (V)	Phase (deg)	Amplitude (m)	Frequency Shift (Hz)	Excitation (V)
1.00000E+0	16.4922E-12	999.329E-3	1.00000E+0	-80.0265E-3	40.0215E-12	-1.11505E+0	27.4210E-3
988.189E-3	16.1863E-12	987.528E-3	988.189E-3	150.602E-3	40.0012E-12	-1.02155E+0	22.2694E-3
976.378E-3	16.3772E-12	975.759E-3	976.378E-3	-7.66976E-3	39.9668E-12	-1.06679E+0	26.3381E-3
964.567E-3	16.2109E-12	963.898E-3	964.567E-3	93.4372E-3	40.0690E-12	-1.03509E+0	23.5418E-3
952.756E-3	15.9344E-12	952.140E-3	952.756E-3	-60.4022E-3	39.9809E-12	-1.08063E+0	25.0976E-3
940.945E-3	15.7451E-12	940.293E-3	940.945E-3	84.5962E-3	39.9972E-12	-1.02584E+0	28.6592E-3
929.134E-3	15.7031E-12	928.479E-3	929.134E-3	-135.669E-3	40.0363E-12	-1.09487E+0	25.3619E-3
917.323E-3	15.6387E-12	916.731E-3	917.323E-3	82.2142E-3	39.9943E-12	-1.04741E+0	26.4655E-3
905.512E-3	15.6393E-12	904.874E-3	905.512E-3	76.2730E-3	39.9745E-12	-1.03676E+0	26.4111E-3
893.701E-3	15.4629E-12	893.114E-3	893.701E-3	60.4461E-3	40.0187E-12	-1.00885E+0	25.3917E-3
881.890E-3	15.0409E-12	881.276E-3	881.890E-3	93.3738E-3	40.0303E-12	-999.540E-3	24.3949E-3
870.079E-3	15.0933E-12	869.476E-3	870.079E-3	34.2155E-3	40.0013E-12	-1.00760E+0	29.0000E-3
858.268E-3	14.9606E-12	857.651E-3	858.268E-3	-45.0988E-3	40.0208E-12	-1.02952E+0	21.8673E-3
846.457E-3	14.9156E-12	845.815E-3	846.457E-3	101.612E-3	39.9873E-12	-1.00079E+0	23.7680E-3
834.646E-3	14.6491E-12	834.042E-3	834.646E-3	89.7808E-3	39.9162E-12	-989.714E-3	28.6657E-3
822.835E-3	14.5210E-12	822.230E-3	822.835E-3	-10.1299E-3	39.9748E-12	-1.03134E+0	25.7240E-3
811.024E-3	14.3920E-12	810.402E-3	811.024E-3	105.893E-3	40.0637E-12	-987.862E-3	26.3357E-3
799.213E-3	14.1871E-12	798.640E-3	799.213E-3	151.852E-3	40.0075E-12	-936.744E-3	25.4675E-3
787.402E-3	13.9999E-12	786.804E-3	787.402E-3	8.32832E-3	40.0091E-12	-968.541E-3	26.6809E-3
775.591E-3	13.8175E-12	775.019E-3	775.591E-3	-85.9912E-3	40.0159E-12	-1.02172E+0	24.2766E-3
763.780E-3	13.9435E-12	763.196E-3	763.780E-3	87.8010E-3	39.9854E-12	-972.664E-3	28.7098E-3
751.969E-3	13.6093E-12	751.415E-3	751.969E-3	-37.4277E-3	40.0226E-12	-998.689E-3	26.2009E-3
740.157E-3	13.5330E-12	739.612E-3	740.157E-3	71.4966E-3	39.9788E-12	-975.655E-3	28.1121E-3
728.346E-3	13.2754E-12	727.772E-3	728.346E-3	157.685E-3	39.9861E-12	-923.429E-3	22.3659E-3
716.535E-3	13.2630E-12	715.993E-3	716.535E-3	-78.1955E-3	40.0066E-12	-1.00115E+0	25.5358E-3
704.724E-3	13.0588E-12	704.296E-3	704.724E-3	121.150E-3	40.0043E-12	-918.848E-3	24.5574E-3
692.913E-3	13.0157E-12	692.501E-3	692.913E-3	11.0555E-3	39.9894E-12	-942.536E-3	26.7981E-3
681.102E-3	12.7761E-12	680.723E-3	681.102E-3	-47.3332E-3	39.9849E-12	-964.352E-3	25.5997E-3
669.291E-3	12.7976E-12	668.905E-3	669.291E-3	-69.8134E-3	40.0312E-12	-987.291E-3	26.6813E-3
657.480E-3	12.5658E-12	657.062E-3	657.480E-3	47.4480E-3	39.8973E-12	-975.041E-3	29.1603E-3
645.669E-3	12.5112E-12	645.261E-3	645.669E-3	80.2798E-3	40.0446E-12	-942.140E-3	25.5208E-3
633.858E-3	12.3021E-12	633.453E-3	633.858E-3	-134.609E-3	40.0255E-12	-1.00993E+0	27.4103E-3
622.047E-3	11.9121E-12	621.644E-3	622.047E-3	166.784E-3	39.9614E-12	-901.554E-3	26.6473E-3
610.236E-3	11.8597E-12	609.883E-3	610.236E-3	-161.267E-3	40.0250E-12	-975.844E-3	26.9668E-3
598.425E-3	11.7648E-12	598.070E-3	598.425E-3	39.6933E-3	40.0385E-12	-929.624E-3	26.3851E-3
586.614E-3	11.6041E-12	586.266E-3	586.614E-3	62.9418E-3	40.0478E-12	-906.174E-3	22.4623E-3
574.803E-3	11.4738E-12	574.446E-3	574.803E-3	-39.5457E-3	39.9713E-12	-950.416E-3	26.9868E-3
562.992E-3	11.2711E-12	562.667E-3	562.992E-3	-43.2250E-3	39.9805E-12	-961.594E-3	27.7810E-3
551.181E-3	11.1756E-12	550.857E-3	551.181E-3	-36.6907E-3	40.0001E-12	-952.496E-3	26.4110E-3
539.370E-3	10.8471E-12	538.995E-3	539.370E-3	-36.8558E-3	40.0419E-12	-966.290E-3	24.6299E-3
527.559E-3	10.8313E-12	527.207E-3	527.559E-3	191.971E-3	40.0703E-12	-875.826E-3	25.5183E-3
515.748E-3	10.6259E-12	515.375E-3	515.748E-3	-166.836E-3	40.0374E-12	-963.962E-3	24.9964E-3
503.937E-3	10.2735E-12	503.594E-3	503.937E-3	-54.3561E-3	39.9805E-12	-950.934E-3	28.5577E-3
492.126E-3	10.1015E-12	491.775E-3	492.126E-3	-7.95498E-3	39.9006E-12	-938.523E-3	26.9771E-3
480.315E-3	10.0616E-12	479.960E-3	480.315E-3	66.8477E-3	40.0395E-12	-936.930E-3	27.5993E-3
468.504E-3	9.76687E-12	468.167E-3	468.504E-3	-71.5714E-3	40.0111E-12	-969.134E-3	25.8291E-3
456.693E-3	9.59630E-12	456.356E-3	456.693E-3	107.748E-3	39.9804E-12	-901.893E-3	26.8575E-3
444.882E-3	9.32788E-12	444.599E-3	444.882E-3	-95.4945E-3	40.0404E-12	-967.541E-3	22.7752E-3
433.071E-3	9.16585E-12	432.751E-3	433.071E-3	128.980E-3	40.0436E-12	-885.788E-3	23.0134E-3
421.260E-3	8.94914E-12	420.938E-3	421.260E-3	-113.009E-3	39.9725E-12	-984.204E-3	27.0578E-3
409.449E-3	8.84161E-12	409.149E-3	409.449E-3	22.1481E-3	40.0316E-12	-950.053E-3	24.5051E-3
397.638E-3	8.65629E-12	397.307E-3	397.638E-3	37.7516E-3	40.0108E-12	-943.076E-3	26.4058E-3
385.827E-3	8.40156E-12	385.557E-3	385.827E-3	134.093E-3	39.9570E-12	-888.839E-3	28.2423E-3
374.016E-3	8.15896E-12	373.709E-3	374.016E-3	7.97034E-3	40.0503E-12	-942.717E-3	26.6125E-3
362.205E-3	7.98513E-12	361.913E-3	362.205E-3	-7.56503E-3	39.9199E-12	-947.691E-3	26.6607E-3
350.394E-3	7.79322E-12	350.159E-3	350.394E-3	-123.432E-3	39.8900E-12	-986.221E-3	29.2960E-3
338.583E-3	7.55424E-12	338.297E-3	338.583E-3	85.7534E-3	39.9381E-12	-958.889E-3	29.5737E-3
326.772E-3	7.39148E-12	326.523E-3	326.772E-3	19.2489E-3	40.0732E-12	-958.804E-3	24.0282E-3
314.961E-3	7.13614E-12	314.678E-3	314.961E-3	-19.1057E-3	40.0286E-12	-967.124E-3	25.1136E-3
303.150E-3	6.90710E-12	302.859E-3	303.150E-3	-52.9887E-3	40.0075E-12	-983.269E-3	25.1821E-3
291.339E-3	6.75206E-12	291.107E-3	291.339E-3	20.8034E-3	39.9978E-12	-955.226E-3	26.5604E-3
279.528E-3	6.50057E-12	279.274E-3	279.528E-3	-23.3618E-3	39.9617E-12	-968.405E-3	27.4901E-3
267.717E-3	6.19686E-12	267.465E-3	267.717E-3	57.2815E-3	40.0264E-12	-952.534E-3	27.8617E-3
255.906E-3	6.00494E-12	255.643E-3	255.906E-3	-39.4573E-3	40.0013E-12	-979.989E-3	26.4727E-3
244.094E-3	5.70423E-12	243.866E-3	244.094E-3	26.3524E-3	39.9407E-12	-961.615E-3	27.4847E-3
232.283E-3	5.52620E-12	232.017E-3	232.283E-3	-53.7008E-3	40.0005E-12	-980.819E-3	26.7205E-3
220.472E-3	5.27890E-12	220.180E-3	220.472E-3	5.62764E-3	39.9844E-12	-967.861E-3	24.6858E-3
208.661E-3	5.04214E-12	208.399E-3	208.661E-3	-4.99210E-3	39.9876E-12	-983.047E-3	27.2914E-3
196.850E-3	4.78178E-12	196.571E-3	196.850E-3	119.323E-3	40.0096E-12	-938.489E-3	24.8082E-3
185.039E-3	4.52815E-12	184.805E-3	185.039E-3	-168.394E-3	39.9925E-12	-1.03304E+0	22.8281E-3
173.228E-3	4.19704E-12	172.991E-3	173.228E-3	45.3123E-3	39.9558E-12	-1.00446E+0	26.4040E-3
161.417E-3	3.93913E-12	161.149E-3	161.417E-3	14.6374E-3	40.0218E-12	-1.00138E+0	25.6551E-3
149.606E-3	3.71391E-12	149.327E-3	149.606E-3	-31.5802E-3	40.0220E-12	-999.653E-3	27.0430E-3
137.795E-3	3.36570E-12	137.532E-3	137.795E-3	-96.4576E-3	40.0228E-12	-1.04655E+0	24.6009E-3
125.984E-3	3.05460E-12	125.765E-3	125.984E-3	2.87123E-3	40.0057E-12	-1.03532E+0	25.1651E-3
114.173E-3	2.78154E-12	113.935E-3	114.173E-3	129.610E-3	40.0168E-12	-973.010E-3	25.5761E-3
102.362E-3	2.48408E-12	102.131E-3	102.362E-3	-93.2521E-3	39.9100E-12	-1.04487E+0	31.9184E-3
90.5512E-3	2.20302E-12	90.3224E-3	90.5512E-3	-55.9249E-3	40.0155E-12	-1.03220E+0	26.9057E-3
78.7402E-3	1.89612E-12	78.4945E-3	78.7402E-3	-66.7829E-3	39.9289E-12	-1.05857E+0	28.1617E-3
66.9291E-3	1.58914E-12	66.6185E-3	66.9291E-3	156.536E-3	39.9847E-12	-1.00559E+0	25.8326E-3
55.1181E-3	1.28792E-12	54.8353E-3	55.1181E-3	-184.323E-3	39.9633E-12	-1.11585E+0	26.9440E-3
43.3071E-3	992.722E-15	43.0223E-3	43.3071E-3	-28.7237E-3	39.9917E-12	-1.08796E+0	26.7603E-3
31.4961E-3	680.753E-15	31.1978E-3	31.4961E-3	-57.0496E-3	40.0034E-12	-1.06832E+0	26.7837E-3
19.6850E-3	382.062E-15	19.4029E-3	19.6850E-3	-22.4564E-3	39.9841E-12	-1.10369E+0	26.2672E-3
7.87402E-3	82.0538E-15	7.53986E-3	7.87402E-3	76.4444E-3	40.0176E-12	-1.06781E+0	24.8369E-3
-3.93701E-3	-222.492E-15	-4.33895E-3	-3.93701E-3	-106.319E-3	39.9715E-12	-1.10945E+0	25.1490E-3
-15.7480E-3	-547.501E-15	-16.1157E-3	-15.7480E-3	-77.9352E-3	39.9890E-12	-1.11801E+0	25.7789E-3
-27.5591E-3	-854.901E-15	-27.9261E-3	-27.5591E-3	-67.8144E-3	40.0111E-12	-1.14350E+0	27.0078E-3
-39.3701E-3	-1.14899E-12	-39.7068E-3	-39.3701E-3	-112.921E-3	40.0890E-12	-1.15429E+0	26.7709E-3
-51.1811E-3	-1.44070E-12	-51.5534E-3	-51.1811E-3	21.4591E-3	40.0308E-12	-1.13186E+0	25.3845E-3
-62.9921E-3	-1.73598E-12	-63.3288E-3	-62.9921E-3	-52.6627E-3	40.0008E-12	-1.14131E+0	25.6535E-3
-74.8032E-3	-2.01628E-12	-75.1676E-3	-74.8032E-3	33.0348E-3	39.9852E-12	-1.13500E+0	27.1892E-3
-86.6142E-3	-2.08709E-12	-87.0294E-3	-86.6142E-3	18.0870E-3	40.0139E-12	-1.11879E+0	24.2537E-3
-98.4252E-3	-2.26665E-12	-98.7948E-3	-98.4252E-3	44.3502E-3	40.0361E-12	-1.11465E+0	27.6401E-3
-110.236E-3	-2.39945E-12	-110.654E-3	-110.236E-3	8.95422E-3	39.9791E-12	-1.13571E+0	26.8374E-3
-122.047E-3	-2.51295E-12	-122.398E-3	-122.047E-3	-90.1392E-3	39.9784E-12	-1.19241E+0	26.8427E-3
-133.858E-3	-2.68100E-12	-134.248E-3	-133.858E-3	114.731E-3	40.0412E-12	-1.15226E+0	26.6054E-3
-145.669E-3	-2.82217E-12	-146.050E-3	-145.669E-3	-92.0876E-3	39.8978E-12	-1.22735E+0	31.2117E-3
-157.480E-3	-3.02351E-12	-157.827E-3	-157.480E-3	39.4121E-3	40.0372E-12	-1.18842E+0	24.3171E-3
-169.291E-3	-3.17302E-12	-169.697E-3	-169.291E-3	-8.45252E-3	39.9529E-12	-1.21674E+0	29.3763E-3
-181.102E-3	-3.32727E-12	-181.438E-3	-181.102E-3	123.664E-3	39.9866E-12	-1.15755E+0	25.4009E-3
-192.913E-3	-3.43588E-12	-193.241E-3	-192.913E-3	18.5748E-3	40.0263E-12	-1.17946E+0	26.0059E-3
-204.724E-3	-3.58482E-12	-205.072E-3	-204.724E-3	-61.3173E-3	39.9209E-12	-1.20479E+0	28.4613E-3
-216.535E-3	-3.80926E-12	-216.856E-3	-216.535E-3	-33.1382E-3	40.0474E-12	-1.21892E+0	25.5336E-3
-228.346E-3	-3.83909E-12	-228.681E-3	-228.346E-3	-119.336E-3	39.9327E-12	-1.25731E+0	27.6118E-3
-240.157E-3	-4.04324E-12	-240.483E-3	-240.157E-3	-109.001E-3	39.9834E-12	-1.29568E+0	26.7824E-3
-251.969E-3	-4.16549E-12	-252.304E-3	-251.969E-3	-18.2285E-3	40.0202E-12	-1.27284E+0	28.5948E-3
-263.780E-3	-4.35432E-12	-264.080E-3	-263.780E-3	75.5184E-3	39.9842E-12	-1.24921E+0	26.4856E-3
-275.591E-3	-4.55744E-12	-275.887E-3	-275.591E-3	11.8866E-3	40.0963E-12	-1.27942E+0	25.4336E-3
-287.402E-3	-4.64304E-12	-287.730E-3	-287.402E-3	53.7380E-3	39.9610E-12	-1.26981E+0	26.9529E-3
-299.213E-3	-4.75251E-12	-299.515E-3	-299.213E-3	60.6075E-3	39.9689E-12	-1.24654E+0	24.0336E-3
-311.024E-3	-4.92425E-12	-311.336E-3	-311.024E-3	-182.294E-3	39.9946E-12	-1.33874E+0	25.3485E-3
-322.835E-3	-5.08715E-12	-323.135E-3	-322.835E-3	-188.435E-3	39.9714E-12	-1.35572E+0	27.8581E-3
-334.646E-3	-5.19546E-12	-334.915E-3	-334.646E-3	-69.2009E-3	40.0352E-12	-1.36778E+0	24.9493E-3
-346.457E-3	-5.36275E-12	-346.740E-3	-346.457E-3	-107.104E-3	39.9946E-12	-1.38197E+0	26.4974E-3
-358.268E-3	-5.40821E-12	-358.577E-3	-358.268E-3	-49.3201E-3	39.9257E-12	-1.38512E+0	27.5328E-3
-370.079E-3	-5.61478E-12	-370.372E-3	-370.079E-3	-20.4863E-3	40.0579E-12	-1.37882E+0	27.4383E-3
-381.890E-3	-5.72964E-12	-382.149E-3	-381.890E-3	42.7078E-3	40.0174E-12	-1.36858E+0	29.1131E-3
-393.701E-3	-5.79983E-12	-394.015E-3	-393.701E-3	-87.7083E-3	40.0230E-12	-1.38955E+0	26.1018E-3
-405.512E-3	-5.95910E-12	-405.833E-3	-405.512E-3	-91.6791E-3	40.0052E-12	-1.42964E+0	24.2489E-3
-417.323E-3	-6.17603E-12	-417.636E-3	-417.323E-3	-12.7558E-3	40.0031E-12	-1.41746E+0	24.2770E-3
-429.134E-3	-6.27577E-12	-429.435E-3	-429.134E-3	89.4868E-3	39.9684E-12	-1.38931E+0	27.7016E-3
-440.945E-3	-6.48258E-12	-441.229E-3	-440.945E-3	74.5351E-6	40.1480E-12	-1.44440E+0	21.1576E-3
-452.756E-3	-6.61456E-12	-453.032E-3	-452.756E-3	-28.0273E-3	39.9687E-12	-1.45303E+0	26.5551E-3
-464.567E-3	-6.91976E-12	-464.855E-3	-464.567E-3	26.3365E-3	40.0179E-12	-1.40142E+0	26.5812E-3
-476.378E-3	-7.22022E-12	-476.677E-3	-476.378E-3	-257.767E-3	39.9862E-12	-1.52085E+0	28.0121E-3
-488.189E-3	-7.46189E-12	-488.416E-3	-488.189E-3	16.3068E-3	39.9592E-12	-1.47614E+0	28.5012E-3
-500.000E-3	-7.75286E-12	-500.251E-3	-500.000E-3	-91.6136E-3	40.0905E-12	-1.52555E+0	25.0125E-3
