Experiment	bias spectroscopy	
Date	30.11.2015 20:05:54	
User		
X (m)	28.9561E-9	
Y (m)	-166.364E-9	
Z (m)	-3.75578E-9	
Z offset (m)	0E+0	
Settling time (s)	30E-3	
Integration time (s)	200E-3	
Z-Ctrl hold	TRUE	
Final Z (m)	-3.75578E-9	
Filter type	None	
Order		
Cutoff frq		
Current (A)	100.924E-12	
Z (m)	-3.75578E-9	
Phase (deg)	-1.2171E+0	
Amplitude (m)	40.7771E-12	
Frequency Shift (Hz)	-939.951E-3	
Excitation (V)	-5.47344E-3	

[DATA]
Bias calc (V)	Current (A)	Applied Voltage measured (V)	Bias (V)	Phase (deg)	Amplitude (m)	Frequency Shift (Hz)	Excitation (V)
1.00000E+0	99.5215E-12	999.319E-3	1.00000E+0	-112.876E-3	40.0119E-12	-598.886E-3	25.0580E-3
988.189E-3	98.1902E-12	987.517E-3	988.189E-3	-48.3953E-3	39.9881E-12	-629.922E-3	23.8815E-3
976.378E-3	97.9594E-12	975.759E-3	976.378E-3	-163.304E-3	40.0705E-12	-687.481E-3	21.6240E-3
964.567E-3	96.9685E-12	963.896E-3	964.567E-3	162.414E-3	39.9908E-12	-577.654E-3	21.4460E-3
952.756E-3	95.2875E-12	952.137E-3	952.756E-3	183.882E-3	39.9590E-12	-538.323E-3	26.5674E-3
940.945E-3	94.5576E-12	940.308E-3	940.945E-3	107.035E-3	40.1416E-12	-506.422E-3	21.7495E-3
929.134E-3	93.6350E-12	928.489E-3	929.134E-3	75.7516E-3	39.8455E-12	-509.629E-3	28.4883E-3
917.323E-3	93.4971E-12	916.738E-3	917.323E-3	37.7673E-3	40.0728E-12	-484.483E-3	24.4604E-3
905.512E-3	92.7103E-12	904.876E-3	905.512E-3	-348.260E-3	40.0157E-12	-607.288E-3	21.5108E-3
893.701E-3	91.4766E-12	893.114E-3	893.701E-3	148.041E-3	39.8734E-12	-502.091E-3	25.0675E-3
881.890E-3	90.3611E-12	881.267E-3	881.890E-3	-110.853E-3	40.0007E-12	-588.159E-3	25.2137E-3
870.079E-3	90.1015E-12	869.469E-3	870.079E-3	87.3599E-3	40.1644E-12	-517.884E-3	20.7268E-3
858.268E-3	88.8682E-12	857.648E-3	858.268E-3	19.2337E-3	39.9738E-12	-539.816E-3	24.4708E-3
846.457E-3	87.8507E-12	845.811E-3	846.457E-3	15.4847E-3	39.9541E-12	-570.061E-3	22.7995E-3
834.646E-3	87.4224E-12	834.042E-3	834.646E-3	-192.189E-3	40.0043E-12	-611.640E-3	24.7182E-3
822.835E-3	86.6388E-12	822.233E-3	822.835E-3	-151.847E-3	40.0089E-12	-611.480E-3	20.4356E-3
811.024E-3	85.7794E-12	810.404E-3	811.024E-3	-2.93187E-3	39.9574E-12	-589.326E-3	22.0843E-3
799.213E-3	84.9608E-12	798.640E-3	799.213E-3	170.885E-3	40.0723E-12	-494.577E-3	22.0980E-3
787.402E-3	84.1307E-12	786.805E-3	787.402E-3	-30.0789E-3	39.9978E-12	-543.079E-3	24.8259E-3
775.591E-3	83.0482E-12	775.010E-3	775.591E-3	-17.4122E-3	39.9297E-12	-561.826E-3	22.8657E-3
763.780E-3	82.3003E-12	763.174E-3	763.780E-3	34.7193E-3	40.0720E-12	-503.396E-3	23.2516E-3
751.969E-3	81.7577E-12	751.401E-3	751.969E-3	118.045E-3	40.0216E-12	-479.680E-3	22.7512E-3
740.157E-3	80.6608E-12	739.601E-3	740.157E-3	-62.1408E-3	40.0712E-12	-547.640E-3	21.2329E-3
728.346E-3	79.3130E-12	727.763E-3	728.346E-3	-90.3581E-3	39.9726E-12	-563.372E-3	23.7899E-3
716.535E-3	78.9333E-12	715.972E-3	716.535E-3	56.5193E-3	39.9847E-12	-530.447E-3	22.7910E-3
704.724E-3	78.1742E-12	704.279E-3	704.724E-3	197.267E-3	40.0956E-12	-482.971E-3	21.3855E-3
692.913E-3	76.8978E-12	692.482E-3	692.913E-3	38.4532E-3	39.9971E-12	-536.605E-3	22.1987E-3
681.102E-3	75.7927E-12	680.704E-3	681.102E-3	-269.227E-3	40.0480E-12	-619.852E-3	20.2615E-3
669.291E-3	74.6965E-12	668.889E-3	669.291E-3	129.164E-3	39.8587E-12	-512.272E-3	24.0920E-3
657.480E-3	74.3655E-12	657.054E-3	657.480E-3	-141.137E-3	40.0097E-12	-556.355E-3	24.5385E-3
645.669E-3	73.0392E-12	645.257E-3	645.669E-3	-191.795E-3	39.9128E-12	-602.172E-3	24.6676E-3
633.858E-3	72.2070E-12	633.452E-3	633.858E-3	151.702E-3	40.0533E-12	-514.909E-3	24.6232E-3
622.047E-3	71.3632E-12	621.651E-3	622.047E-3	-44.8500E-3	40.0499E-12	-572.921E-3	20.4416E-3
610.236E-3	70.3222E-12	609.880E-3	610.236E-3	14.2317E-3	39.9924E-12	-548.066E-3	23.5044E-3
598.425E-3	68.8999E-12	598.078E-3	598.425E-3	-199.455E-3	39.9332E-12	-610.660E-3	22.5938E-3
586.614E-3	68.4265E-12	586.271E-3	586.614E-3	-29.6662E-3	40.0686E-12	-594.002E-3	22.5217E-3
574.803E-3	67.2177E-12	574.442E-3	574.803E-3	14.3449E-3	40.0567E-12	-533.515E-3	23.6962E-3
562.992E-3	66.1944E-12	562.663E-3	562.992E-3	-47.6049E-3	40.0516E-12	-588.373E-3	20.0198E-3
551.181E-3	65.1804E-12	550.845E-3	551.181E-3	-41.2340E-3	39.8762E-12	-594.413E-3	24.1028E-3
539.370E-3	63.9968E-12	538.988E-3	539.370E-3	146.166E-3	40.0302E-12	-542.896E-3	22.8298E-3
527.559E-3	63.4744E-12	527.201E-3	527.559E-3	-15.2785E-3	39.9585E-12	-560.609E-3	26.0644E-3
515.748E-3	62.1834E-12	515.375E-3	515.748E-3	111.877E-3	39.9684E-12	-524.061E-3	25.3440E-3
503.937E-3	61.1456E-12	503.586E-3	503.937E-3	53.5567E-3	40.0148E-12	-536.162E-3	24.5334E-3
492.126E-3	60.2084E-12	491.756E-3	492.126E-3	-83.4596E-3	39.9943E-12	-577.527E-3	23.9361E-3
480.315E-3	59.0737E-12	479.945E-3	480.315E-3	-80.5484E-3	39.9286E-12	-604.293E-3	24.2855E-3
468.504E-3	58.1601E-12	468.152E-3	468.504E-3	-44.5413E-3	40.1119E-12	-597.609E-3	22.0945E-3
456.693E-3	56.4346E-12	456.345E-3	456.693E-3	-49.5058E-3	40.0307E-12	-584.753E-3	25.1115E-3
444.882E-3	55.5185E-12	444.582E-3	444.882E-3	-4.40376E-3	39.9026E-12	-596.197E-3	24.5945E-3
433.071E-3	54.3042E-12	432.741E-3	433.071E-3	-41.1546E-3	39.9417E-12	-619.601E-3	23.7481E-3
421.260E-3	53.5135E-12	420.925E-3	421.260E-3	-79.5845E-3	40.0549E-12	-640.458E-3	25.0789E-3
409.449E-3	52.1905E-12	409.153E-3	409.449E-3	4.05905E-3	39.9581E-12	-613.458E-3	24.2102E-3
397.638E-3	50.9518E-12	397.298E-3	397.638E-3	136.809E-3	40.0475E-12	-574.564E-3	23.4313E-3
385.827E-3	49.5815E-12	385.540E-3	385.827E-3	27.3523E-3	39.8838E-12	-579.079E-3	28.0168E-3
374.016E-3	48.4997E-12	373.693E-3	374.016E-3	43.7824E-3	39.9969E-12	-545.419E-3	26.3149E-3
362.205E-3	47.1468E-12	361.898E-3	362.205E-3	51.0590E-3	40.0604E-12	-570.442E-3	24.3056E-3
350.394E-3	46.1140E-12	350.150E-3	350.394E-3	7.89192E-3	40.0150E-12	-586.871E-3	23.2034E-3
338.583E-3	44.6063E-12	338.293E-3	338.583E-3	-18.0071E-3	39.9740E-12	-583.538E-3	26.0580E-3
326.772E-3	43.5397E-12	326.500E-3	326.772E-3	-27.6419E-3	39.9955E-12	-595.582E-3	25.5084E-3
314.961E-3	42.3934E-12	314.678E-3	314.961E-3	-132.522E-3	39.9827E-12	-667.687E-3	25.5194E-3
303.150E-3	40.8479E-12	302.847E-3	303.150E-3	49.4939E-3	39.9616E-12	-620.784E-3	24.9612E-3
291.339E-3	39.1141E-12	291.094E-3	291.339E-3	31.5499E-3	40.0134E-12	-631.326E-3	26.2980E-3
279.528E-3	38.1556E-12	279.268E-3	279.528E-3	7.94998E-3	40.0415E-12	-637.239E-3	23.2747E-3
267.717E-3	36.8172E-12	267.457E-3	267.717E-3	-49.4881E-3	40.0434E-12	-643.081E-3	22.6764E-3
255.906E-3	35.4064E-12	255.634E-3	255.906E-3	64.9210E-3	40.0323E-12	-657.759E-3	24.6433E-3
244.094E-3	33.6893E-12	243.853E-3	244.094E-3	46.9721E-3	39.9795E-12	-653.324E-3	28.3330E-3
232.283E-3	32.0960E-12	232.002E-3	232.283E-3	-62.3316E-3	39.9773E-12	-694.208E-3	24.0953E-3
220.472E-3	30.7800E-12	220.172E-3	220.472E-3	-59.0414E-3	39.9944E-12	-701.902E-3	25.2176E-3
208.661E-3	28.6816E-12	208.396E-3	208.661E-3	174.794E-3	39.9353E-12	-630.787E-3	28.0316E-3
196.850E-3	26.9371E-12	196.561E-3	196.850E-3	-120.435E-3	39.9559E-12	-713.351E-3	27.0121E-3
185.039E-3	25.5125E-12	184.791E-3	185.039E-3	74.4812E-3	40.0242E-12	-661.654E-3	29.5268E-3
173.228E-3	23.6162E-12	172.977E-3	173.228E-3	7.17795E-3	39.9449E-12	-673.033E-3	28.3669E-3
161.417E-3	21.5328E-12	161.150E-3	161.417E-3	-177.995E-3	39.9901E-12	-752.350E-3	28.6616E-3
149.606E-3	20.0702E-12	149.322E-3	149.606E-3	-81.4849E-3	39.9851E-12	-737.294E-3	26.6591E-3
137.795E-3	18.3996E-12	137.524E-3	137.795E-3	-15.5781E-3	40.0252E-12	-716.818E-3	24.8507E-3
125.984E-3	16.6561E-12	125.758E-3	125.984E-3	17.8504E-3	39.9861E-12	-714.089E-3	26.4518E-3
114.173E-3	14.8989E-12	113.924E-3	114.173E-3	39.8231E-3	40.0238E-12	-734.416E-3	25.7001E-3
102.362E-3	13.4424E-12	102.120E-3	102.362E-3	-36.6227E-3	40.0466E-12	-766.272E-3	24.7276E-3
90.5512E-3	11.5700E-12	90.3202E-3	90.5512E-3	43.0317E-3	39.9722E-12	-720.397E-3	24.9117E-3
78.7402E-3	10.1636E-12	78.4881E-3	78.7402E-3	-107.249E-3	40.0608E-12	-788.113E-3	27.2451E-3
66.9291E-3	8.42350E-12	66.6164E-3	66.9291E-3	60.1603E-3	39.9839E-12	-755.542E-3	24.1394E-3
55.1181E-3	6.96540E-12	54.8436E-3	55.1181E-3	52.5774E-3	40.0061E-12	-749.293E-3	25.5333E-3
43.3071E-3	5.33472E-12	43.0324E-3	43.3071E-3	-116.392E-3	40.0153E-12	-807.855E-3	27.1710E-3
31.4961E-3	3.82950E-12	31.1963E-3	31.4961E-3	-35.2868E-3	40.0407E-12	-786.184E-3	27.0686E-3
19.6850E-3	2.33840E-12	19.3997E-3	19.6850E-3	-537.073E-6	39.9721E-12	-790.369E-3	29.2850E-3
7.87402E-3	912.278E-15	7.55368E-3	7.87402E-3	-78.0533E-3	40.0718E-12	-828.091E-3	23.3620E-3
-3.93701E-3	-508.303E-15	-4.33475E-3	-3.93701E-3	-78.4529E-3	39.9690E-12	-840.133E-3	28.8100E-3
-15.7480E-3	-2.04912E-12	-16.1199E-3	-15.7480E-3	-83.3246E-3	40.0363E-12	-861.114E-3	26.5105E-3
-27.5591E-3	-3.61893E-12	-27.9349E-3	-27.5591E-3	34.2905E-3	39.9754E-12	-841.115E-3	28.3404E-3
-39.3701E-3	-5.01784E-12	-39.7044E-3	-39.3701E-3	-27.7551E-3	39.9873E-12	-865.698E-3	24.3859E-3
-51.1811E-3	-6.34038E-12	-51.5639E-3	-51.1811E-3	58.9487E-3	39.9780E-12	-833.262E-3	27.3876E-3
-62.9921E-3	-7.62116E-12	-63.3422E-3	-62.9921E-3	-125.814E-3	40.0568E-12	-901.384E-3	26.2679E-3
-74.8032E-3	-8.51295E-12	-75.1803E-3	-74.8032E-3	-4.32014E-3	39.9841E-12	-883.284E-3	25.1439E-3
-86.6142E-3	-9.29039E-12	-87.0361E-3	-86.6142E-3	40.8319E-3	40.0451E-12	-880.013E-3	25.3775E-3
-98.4252E-3	-9.84137E-12	-98.8136E-3	-98.4252E-3	-43.8184E-3	39.9381E-12	-926.243E-3	26.8232E-3
-110.236E-3	-10.5872E-12	-110.669E-3	-110.236E-3	-14.8724E-3	39.9723E-12	-933.766E-3	27.4237E-3
-122.047E-3	-11.1647E-12	-122.412E-3	-122.047E-3	5.62912E-3	39.9296E-12	-912.669E-3	29.2301E-3
-133.858E-3	-11.7501E-12	-134.270E-3	-133.858E-3	-57.4962E-3	39.9563E-12	-939.960E-3	30.4100E-3
-145.669E-3	-12.2811E-12	-146.052E-3	-145.669E-3	78.2982E-3	39.9912E-12	-892.279E-3	28.4050E-3
-157.480E-3	-12.9982E-12	-157.833E-3	-157.480E-3	57.8448E-3	40.0356E-12	-909.084E-3	28.1859E-3
-169.291E-3	-13.6782E-12	-169.703E-3	-169.291E-3	-52.6164E-3	40.0148E-12	-940.826E-3	23.0926E-3
-181.102E-3	-14.0909E-12	-181.449E-3	-181.102E-3	41.3526E-3	40.0071E-12	-942.239E-3	28.1697E-3
-192.913E-3	-14.9809E-12	-193.259E-3	-192.913E-3	-33.0408E-3	40.0308E-12	-956.335E-3	25.3731E-3
-204.724E-3	-15.7899E-12	-205.091E-3	-204.724E-3	-41.3482E-3	40.0438E-12	-973.572E-3	25.3153E-3
-216.535E-3	-16.2493E-12	-216.890E-3	-216.535E-3	48.2735E-3	39.9921E-12	-945.232E-3	25.1554E-3
-228.346E-3	-17.2212E-12	-228.707E-3	-228.346E-3	-1.03847E-3	39.9994E-12	-977.265E-3	23.9431E-3
-240.157E-3	-17.9418E-12	-240.508E-3	-240.157E-3	-228.208E-3	39.9949E-12	-1.10266E+0	25.6477E-3
-251.969E-3	-18.7459E-12	-252.327E-3	-251.969E-3	2.56543E-3	39.9600E-12	-1.03342E+0	27.3359E-3
-263.780E-3	-19.4981E-12	-264.093E-3	-263.780E-3	6.85182E-3	40.0644E-12	-1.00730E+0	25.1545E-3
-275.591E-3	-20.2552E-12	-275.895E-3	-275.591E-3	36.2804E-3	39.9488E-12	-996.662E-3	27.6328E-3
-287.402E-3	-21.0199E-12	-287.738E-3	-287.402E-3	-108.706E-3	40.0032E-12	-1.05465E+0	27.2067E-3
-299.213E-3	-21.7226E-12	-299.530E-3	-299.213E-3	-182.957E-3	40.0352E-12	-1.12163E+0	27.8285E-3
-311.024E-3	-22.7063E-12	-311.364E-3	-311.024E-3	50.3230E-3	40.0503E-12	-1.08246E+0	23.9513E-3
-322.835E-3	-23.2798E-12	-323.157E-3	-322.835E-3	87.9084E-3	39.9800E-12	-1.06371E+0	23.4603E-3
-334.646E-3	-24.3613E-12	-334.925E-3	-334.646E-3	33.2956E-3	40.0583E-12	-1.06781E+0	26.1714E-3
-346.457E-3	-24.8857E-12	-346.739E-3	-346.457E-3	-70.5442E-3	40.0327E-12	-1.14629E+0	28.3676E-3
-358.268E-3	-25.5790E-12	-358.574E-3	-358.268E-3	1.50997E-3	39.9656E-12	-1.11635E+0	29.6008E-3
-370.079E-3	-26.5114E-12	-370.379E-3	-370.079E-3	-155.705E-3	39.9862E-12	-1.20288E+0	27.9100E-3
-381.890E-3	-27.3891E-12	-382.149E-3	-381.890E-3	35.9285E-3	40.0407E-12	-1.15900E+0	26.9950E-3
-393.701E-3	-27.8822E-12	-394.023E-3	-393.701E-3	19.5395E-3	39.9313E-12	-1.16621E+0	32.2138E-3
-405.512E-3	-28.6566E-12	-405.827E-3	-405.512E-3	-69.0486E-3	40.0353E-12	-1.19237E+0	27.7309E-3
-417.323E-3	-29.6590E-12	-417.635E-3	-417.323E-3	-146.986E-3	40.0226E-12	-1.23870E+0	24.9443E-3
-429.134E-3	-29.9238E-12	-429.442E-3	-429.134E-3	-63.6290E-3	40.0038E-12	-1.21669E+0	30.2523E-3
-440.945E-3	-31.3176E-12	-441.241E-3	-440.945E-3	95.9051E-3	40.0396E-12	-1.17750E+0	27.5704E-3
-452.756E-3	-31.3905E-12	-453.039E-3	-452.756E-3	39.4348E-3	39.9606E-12	-1.18651E+0	27.3987E-3
-464.567E-3	-31.9234E-12	-464.865E-3	-464.567E-3	-173.880E-3	40.0077E-12	-1.26875E+0	28.5837E-3
-476.378E-3	-33.0261E-12	-476.698E-3	-476.378E-3	26.0172E-3	40.0562E-12	-1.24457E+0	25.9842E-3
-488.189E-3	-33.5321E-12	-488.426E-3	-488.189E-3	-143.077E-3	39.9872E-12	-1.30557E+0	28.1073E-3
-500.000E-3	-34.0119E-12	-500.261E-3	-500.000E-3	-64.2002E-3	39.9919E-12	-1.29729E+0	26.4070E-3
