Experiment	bias spectroscopy	
Date	01.12.2015 08:59:11	
User		
X (m)	281.982E-9	
Y (m)	-138.051E-9	
Z (m)	-4.07703E-9	
Z offset (m)	0E+0	
Settling time (s)	30E-3	
Integration time (s)	200E-3	
Z-Ctrl hold	TRUE	
Final Z (m)	-4.07703E-9	
Filter type	None	
Order		
Cutoff frq		
Current (A)	15.8214E-12	
Z (m)	-4.07703E-9	
Phase (deg)	-171.412E-3	
Amplitude (m)	40.2382E-12	
Frequency Shift (Hz)	-1.14694E+0	
Excitation (V)	13.1218E-3	

[DATA]
Bias calc (V)	Current (A)	Applied Voltage measured (V)	Bias (V)	Phase (deg)	Amplitude (m)	Frequency Shift (Hz)	Excitation (V)
1.00000E+0	15.5941E-12	999.344E-3	1.00000E+0	-40.5785E-3	40.0229E-12	-1.11086E+0	23.6465E-3
988.189E-3	15.3334E-12	987.545E-3	988.189E-3	4.63244E-3	39.9802E-12	-1.09855E+0	24.4363E-3
976.378E-3	15.3993E-12	975.777E-3	976.378E-3	-29.2257E-3	40.0609E-12	-1.08658E+0	24.2380E-3
964.567E-3	15.2143E-12	963.911E-3	964.567E-3	68.4299E-3	39.9440E-12	-1.04365E+0	27.1339E-3
952.756E-3	15.0072E-12	952.155E-3	952.756E-3	65.7708E-3	40.0660E-12	-1.04875E+0	25.5655E-3
940.945E-3	14.7724E-12	940.310E-3	940.945E-3	29.9178E-3	39.9725E-12	-1.05519E+0	24.5274E-3
929.134E-3	14.8213E-12	928.494E-3	929.134E-3	16.0400E-3	40.0564E-12	-1.05264E+0	26.3696E-3
917.323E-3	14.5619E-12	916.742E-3	917.323E-3	46.9618E-3	39.9506E-12	-1.03724E+0	25.3213E-3
905.512E-3	14.3914E-12	904.884E-3	905.512E-3	75.8917E-3	39.9513E-12	-1.03123E+0	27.1924E-3
893.701E-3	14.2492E-12	893.127E-3	893.701E-3	-51.0947E-3	39.9784E-12	-1.07833E+0	24.6146E-3
881.890E-3	14.5100E-12	881.287E-3	881.890E-3	67.8913E-3	40.0022E-12	-1.02814E+0	27.4971E-3
870.079E-3	14.0390E-12	869.490E-3	870.079E-3	20.3625E-3	40.0155E-12	-1.05770E+0	22.2384E-3
858.268E-3	13.8566E-12	857.661E-3	858.268E-3	157.358E-3	39.9908E-12	-1.00609E+0	29.4849E-3
846.457E-3	13.7616E-12	845.826E-3	846.457E-3	127.277E-3	40.0635E-12	-975.207E-3	22.8282E-3
834.646E-3	13.4150E-12	834.053E-3	834.646E-3	77.3262E-3	39.9322E-12	-972.906E-3	25.5780E-3
822.835E-3	13.5911E-12	822.246E-3	822.835E-3	15.5463E-3	40.0474E-12	-981.448E-3	26.7704E-3
811.024E-3	13.3575E-12	810.434E-3	811.024E-3	-75.0379E-3	40.0128E-12	-1.01937E+0	23.8092E-3
799.213E-3	13.1581E-12	798.647E-3	799.213E-3	-48.6492E-3	39.9696E-12	-1.02230E+0	26.0731E-3
787.402E-3	12.7780E-12	786.822E-3	787.402E-3	90.9555E-3	39.9343E-12	-971.014E-3	27.1133E-3
775.591E-3	12.9483E-12	775.038E-3	775.591E-3	95.4820E-3	40.0621E-12	-962.015E-3	28.1198E-3
763.780E-3	12.8120E-12	763.209E-3	763.780E-3	-124.502E-3	40.0506E-12	-1.02441E+0	23.9575E-3
751.969E-3	12.5068E-12	751.434E-3	751.969E-3	-43.6511E-3	39.9369E-12	-1.03576E+0	28.4700E-3
740.157E-3	12.3718E-12	739.632E-3	740.157E-3	150.317E-3	39.9706E-12	-966.728E-3	26.8114E-3
728.346E-3	12.4203E-12	727.793E-3	728.346E-3	-27.6047E-3	40.0805E-12	-993.097E-3	23.7110E-3
716.535E-3	12.0951E-12	716.007E-3	716.535E-3	-14.9456E-3	39.8895E-12	-991.188E-3	24.5544E-3
704.724E-3	12.1788E-12	704.316E-3	704.724E-3	15.4118E-3	40.0896E-12	-977.241E-3	25.4056E-3
692.913E-3	11.7715E-12	692.519E-3	692.913E-3	-49.2212E-3	39.9313E-12	-991.448E-3	28.4544E-3
681.102E-3	11.8361E-12	680.755E-3	681.102E-3	171.985E-3	40.0775E-12	-923.715E-3	24.3145E-3
669.291E-3	11.5941E-12	668.929E-3	669.291E-3	169.398E-3	40.0459E-12	-895.173E-3	22.9912E-3
657.480E-3	11.4446E-12	657.086E-3	657.480E-3	-72.0777E-3	39.9834E-12	-941.173E-3	27.6036E-3
645.669E-3	11.3825E-12	645.283E-3	645.669E-3	-28.1834E-3	39.9645E-12	-946.860E-3	27.7600E-3
633.858E-3	11.0741E-12	633.484E-3	633.858E-3	28.8361E-3	40.0109E-12	-951.901E-3	23.6508E-3
622.047E-3	11.0369E-12	621.673E-3	622.047E-3	9.87385E-3	39.9642E-12	-935.721E-3	26.1963E-3
610.236E-3	10.7732E-12	609.907E-3	610.236E-3	23.4119E-3	39.9890E-12	-930.925E-3	25.8453E-3
598.425E-3	10.7333E-12	598.098E-3	598.425E-3	-56.6411E-3	39.9347E-12	-973.440E-3	26.7721E-3
586.614E-3	10.4865E-12	586.281E-3	586.614E-3	-115.170E-3	40.0090E-12	-992.487E-3	27.0335E-3
574.803E-3	10.4938E-12	574.470E-3	574.803E-3	5.94391E-3	40.0482E-12	-958.730E-3	27.6533E-3
562.992E-3	10.2685E-12	562.687E-3	562.992E-3	38.4756E-3	39.9901E-12	-927.729E-3	26.3192E-3
551.181E-3	10.1625E-12	550.876E-3	551.181E-3	-130.175E-3	40.0478E-12	-965.315E-3	23.8445E-3
539.370E-3	9.85268E-12	539.007E-3	539.370E-3	105.619E-3	39.9507E-12	-913.876E-3	27.8184E-3
527.559E-3	9.77025E-12	527.229E-3	527.559E-3	17.3408E-3	40.0691E-12	-913.401E-3	24.7032E-3
515.748E-3	9.51479E-12	515.392E-3	515.748E-3	-143.198E-3	39.9909E-12	-984.702E-3	24.9597E-3
503.937E-3	9.32432E-12	503.605E-3	503.937E-3	34.1926E-3	40.0495E-12	-937.681E-3	24.7983E-3
492.126E-3	9.22176E-12	491.780E-3	492.126E-3	-46.3026E-3	40.0473E-12	-973.703E-3	26.0683E-3
480.315E-3	8.87679E-12	479.969E-3	480.315E-3	10.8099E-3	39.9506E-12	-962.017E-3	26.8525E-3
468.504E-3	8.81255E-12	468.182E-3	468.504E-3	68.2108E-3	40.0074E-12	-930.715E-3	25.8394E-3
456.693E-3	8.64586E-12	456.364E-3	456.693E-3	37.5404E-3	39.9850E-12	-924.742E-3	27.7740E-3
444.882E-3	8.40725E-12	444.596E-3	444.882E-3	25.1340E-3	39.9748E-12	-932.536E-3	26.8598E-3
433.071E-3	8.23268E-12	432.769E-3	433.071E-3	-28.3263E-3	40.0577E-12	-944.873E-3	26.1341E-3
421.260E-3	7.97279E-12	420.962E-3	421.260E-3	78.9037E-3	40.0246E-12	-910.783E-3	24.9001E-3
409.449E-3	7.71299E-12	409.174E-3	409.449E-3	2.73750E-3	39.9940E-12	-926.870E-3	27.6038E-3
397.638E-3	7.54681E-12	397.326E-3	397.638E-3	-4.51940E-3	40.0031E-12	-926.943E-3	27.7913E-3
385.827E-3	7.38294E-12	385.558E-3	385.827E-3	-99.5635E-3	40.0369E-12	-977.287E-3	26.8714E-3
374.016E-3	7.31415E-12	373.724E-3	374.016E-3	21.4225E-3	40.0280E-12	-931.450E-3	26.6989E-3
362.205E-3	7.03679E-12	361.928E-3	362.205E-3	-88.7389E-3	40.0118E-12	-970.674E-3	26.5070E-3
350.394E-3	6.71316E-12	350.182E-3	350.394E-3	-82.4029E-3	39.9345E-12	-997.949E-3	28.3194E-3
338.583E-3	6.63379E-12	338.322E-3	338.583E-3	58.3118E-3	40.0589E-12	-955.271E-3	23.1237E-3
326.772E-3	6.40466E-12	326.528E-3	326.772E-3	10.9444E-3	39.9612E-12	-965.032E-3	26.5348E-3
314.961E-3	6.15338E-12	314.698E-3	314.961E-3	125.415E-3	40.0201E-12	-923.610E-3	25.5485E-3
303.150E-3	5.99690E-12	302.873E-3	303.150E-3	-7.66183E-3	40.0723E-12	-955.472E-3	23.5717E-3
291.339E-3	5.80437E-12	291.128E-3	291.339E-3	30.2766E-3	40.0351E-12	-958.498E-3	23.0758E-3
279.528E-3	5.51579E-12	279.296E-3	279.528E-3	6.11351E-3	39.9564E-12	-952.567E-3	25.3559E-3
267.717E-3	5.36247E-12	267.476E-3	267.717E-3	129.072E-3	39.9826E-12	-919.254E-3	26.4860E-3
255.906E-3	5.11514E-12	255.649E-3	255.906E-3	34.8106E-3	39.9315E-12	-957.928E-3	26.0011E-3
244.094E-3	4.89348E-12	243.877E-3	244.094E-3	-39.8832E-3	39.9799E-12	-971.373E-3	24.7421E-3
232.283E-3	4.72221E-12	232.024E-3	232.283E-3	-177.381E-3	40.0720E-12	-1.02187E+0	23.5138E-3
220.472E-3	4.50433E-12	220.199E-3	220.472E-3	44.2688E-3	39.9916E-12	-975.257E-3	26.8312E-3
208.661E-3	4.33383E-12	208.426E-3	208.661E-3	-75.5082E-3	40.0350E-12	-1.02288E+0	24.1475E-3
196.850E-3	4.06006E-12	196.587E-3	196.850E-3	-58.3926E-3	39.9640E-12	-1.03382E+0	25.1338E-3
185.039E-3	3.87521E-12	184.819E-3	185.039E-3	-43.5506E-3	39.9696E-12	-1.02752E+0	27.8755E-3
173.228E-3	3.63616E-12	173.004E-3	173.228E-3	17.5216E-3	40.0409E-12	-1.00776E+0	24.0108E-3
161.417E-3	3.42369E-12	161.165E-3	161.417E-3	33.4869E-3	39.9803E-12	-1.00578E+0	25.8365E-3
149.606E-3	3.22936E-12	149.340E-3	149.606E-3	134.701E-3	40.0271E-12	-962.538E-3	26.1727E-3
137.795E-3	2.99697E-12	137.557E-3	137.795E-3	-141.380E-3	40.0348E-12	-1.03489E+0	25.1570E-3
125.984E-3	2.76665E-12	125.776E-3	125.984E-3	275.515E-6	40.0097E-12	-1.01552E+0	25.2396E-3
114.173E-3	2.49684E-12	113.946E-3	114.173E-3	-65.2363E-3	40.0054E-12	-1.05018E+0	22.2699E-3
102.362E-3	2.24620E-12	102.139E-3	102.362E-3	-104.062E-3	39.9832E-12	-1.05555E+0	26.9557E-3
90.5512E-3	2.02670E-12	90.3365E-3	90.5512E-3	79.2086E-3	39.9922E-12	-1.03012E+0	26.9291E-3
78.7402E-3	1.78713E-12	78.5060E-3	78.7402E-3	-22.9746E-3	39.9385E-12	-1.04212E+0	27.0196E-3
66.9291E-3	1.50355E-12	66.6337E-3	66.9291E-3	-260.146E-6	39.9982E-12	-1.03815E+0	26.5942E-3
55.1181E-3	1.25187E-12	54.8609E-3	55.1181E-3	-7.57192E-3	40.0378E-12	-1.06184E+0	25.3608E-3
43.3071E-3	982.150E-15	43.0423E-3	43.3071E-3	39.3205E-3	39.9913E-12	-1.04458E+0	29.1192E-3
31.4961E-3	662.556E-15	31.2206E-3	31.4961E-3	18.1796E-3	39.9249E-12	-1.05103E+0	29.2931E-3
19.6850E-3	369.654E-15	19.4231E-3	19.6850E-3	-112.451E-3	40.0419E-12	-1.10989E+0	25.3646E-3
7.87402E-3	84.4440E-15	7.56463E-3	7.87402E-3	78.6482E-3	39.9459E-12	-1.06994E+0	26.8254E-3
-3.93701E-3	-221.585E-15	-4.32017E-3	-3.93701E-3	-77.5163E-3	40.0125E-12	-1.12107E+0	25.4549E-3
-15.7480E-3	-545.342E-15	-16.1095E-3	-15.7480E-3	-5.07724E-3	40.0426E-12	-1.10052E+0	25.4503E-3
-27.5591E-3	-859.671E-15	-27.9151E-3	-27.5591E-3	-69.0079E-3	39.9387E-12	-1.12713E+0	28.3479E-3
-39.3701E-3	-1.19092E-12	-39.6819E-3	-39.3701E-3	9.81730E-3	39.9966E-12	-1.10245E+0	26.2107E-3
-51.1811E-3	-1.51311E-12	-51.5385E-3	-51.1811E-3	-89.0725E-3	40.1102E-12	-1.11818E+0	21.6119E-3
-62.9921E-3	-1.84109E-12	-63.3128E-3	-62.9921E-3	-75.4015E-3	39.8965E-12	-1.13231E+0	28.4466E-3
-74.8032E-3	-2.10271E-12	-75.1437E-3	-74.8032E-3	-88.2162E-3	40.0960E-12	-1.16275E+0	23.7925E-3
-86.6142E-3	-2.24724E-12	-87.0027E-3	-86.6142E-3	-62.1379E-3	40.0087E-12	-1.17653E+0	24.5944E-3
-98.4252E-3	-2.30563E-12	-98.7717E-3	-98.4252E-3	81.3258E-3	39.8735E-12	-1.13184E+0	27.8459E-3
-110.236E-3	-2.42755E-12	-110.627E-3	-110.236E-3	-117.332E-3	40.0490E-12	-1.21269E+0	25.9180E-3
-122.047E-3	-2.56453E-12	-122.375E-3	-122.047E-3	66.7627E-3	39.9070E-12	-1.14270E+0	27.7839E-3
-133.858E-3	-2.73546E-12	-134.231E-3	-133.858E-3	-17.4593E-3	40.0424E-12	-1.16100E+0	26.4129E-3
-145.669E-3	-2.85069E-12	-146.027E-3	-145.669E-3	-87.7221E-3	39.9870E-12	-1.23072E+0	27.8709E-3
-157.480E-3	-3.05767E-12	-157.797E-3	-157.480E-3	-3.86194E-3	40.0760E-12	-1.18978E+0	24.0372E-3
-169.291E-3	-3.22518E-12	-169.671E-3	-169.291E-3	-50.6213E-3	39.9896E-12	-1.22064E+0	28.5537E-3
-181.102E-3	-3.33288E-12	-181.410E-3	-181.102E-3	-57.4578E-3	40.0149E-12	-1.23853E+0	25.3004E-3
-192.913E-3	-3.43140E-12	-193.221E-3	-192.913E-3	200.305E-3	40.0054E-12	-1.16670E+0	23.9164E-3
-204.724E-3	-3.56272E-12	-205.055E-3	-204.724E-3	-218.198E-3	39.9960E-12	-1.28228E+0	27.2576E-3
-216.535E-3	-3.70174E-12	-216.858E-3	-216.535E-3	-43.6429E-3	39.9690E-12	-1.23878E+0	25.9604E-3
-228.346E-3	-3.78853E-12	-228.673E-3	-228.346E-3	60.2310E-3	39.9713E-12	-1.21552E+0	28.0898E-3
-240.157E-3	-3.97870E-12	-240.476E-3	-240.157E-3	48.8004E-3	39.9923E-12	-1.24046E+0	29.5326E-3
-251.969E-3	-4.13987E-12	-252.297E-3	-251.969E-3	-121.881E-3	40.0432E-12	-1.29461E+0	24.9477E-3
-263.780E-3	-4.32854E-12	-264.065E-3	-263.780E-3	-93.8152E-3	39.9988E-12	-1.30483E+0	26.2310E-3
-275.591E-3	-4.51753E-12	-275.869E-3	-275.591E-3	-55.2266E-3	39.9553E-12	-1.30740E+0	25.9139E-3
-287.402E-3	-4.71297E-12	-287.713E-3	-287.402E-3	80.8028E-3	40.0538E-12	-1.28505E+0	20.8695E-3
-299.213E-3	-4.83124E-12	-299.504E-3	-299.213E-3	80.5902E-3	40.0012E-12	-1.26694E+0	25.5204E-3
-311.024E-3	-4.99652E-12	-311.330E-3	-311.024E-3	-13.0959E-3	39.9624E-12	-1.31220E+0	27.5988E-3
-322.835E-3	-5.06889E-12	-323.117E-3	-322.835E-3	-117.487E-3	40.0131E-12	-1.35801E+0	27.9184E-3
-334.646E-3	-5.24341E-12	-334.889E-3	-334.646E-3	-41.0216E-3	39.9526E-12	-1.35189E+0	29.7785E-3
-346.457E-3	-5.39996E-12	-346.709E-3	-346.457E-3	106.622E-3	40.0319E-12	-1.29651E+0	24.2660E-3
-358.268E-3	-5.47629E-12	-358.549E-3	-358.268E-3	-110.745E-3	40.0300E-12	-1.36965E+0	23.5813E-3
-370.079E-3	-5.61283E-12	-370.352E-3	-370.079E-3	29.0151E-3	39.9415E-12	-1.34073E+0	26.6062E-3
-381.890E-3	-5.73963E-12	-382.128E-3	-381.890E-3	-191.239E-3	40.0660E-12	-1.40923E+0	24.5697E-3
-393.701E-3	-5.83347E-12	-393.997E-3	-393.701E-3	51.6997E-3	39.9578E-12	-1.36543E+0	25.2065E-3
-405.512E-3	-6.00273E-12	-405.812E-3	-405.512E-3	-125.665E-3	39.9914E-12	-1.42407E+0	26.7596E-3
-417.323E-3	-6.07688E-12	-417.607E-3	-417.323E-3	58.1640E-3	40.0190E-12	-1.38858E+0	27.1662E-3
-429.134E-3	-6.34519E-12	-429.416E-3	-429.134E-3	-123.420E-3	40.0211E-12	-1.46160E+0	27.3002E-3
-440.945E-3	-6.38249E-12	-441.218E-3	-440.945E-3	-119.090E-3	39.9722E-12	-1.48216E+0	25.9660E-3
-452.756E-3	-6.71616E-12	-453.024E-3	-452.756E-3	-20.8862E-3	40.0260E-12	-1.46364E+0	26.5561E-3
-464.567E-3	-6.89361E-12	-464.843E-3	-464.567E-3	-113.200E-3	40.0407E-12	-1.51348E+0	25.5635E-3
-476.378E-3	-7.05780E-12	-476.675E-3	-476.378E-3	-28.3693E-3	39.9359E-12	-1.50261E+0	26.2415E-3
-488.189E-3	-7.44315E-12	-488.407E-3	-488.189E-3	-69.2374E-3	40.0156E-12	-1.53909E+0	28.3894E-3
-500.000E-3	-7.82860E-12	-500.245E-3	-500.000E-3	-114.755E-3	40.0438E-12	-1.56858E+0	24.7344E-3
