Experiment	bias spectroscopy	
Date	01.12.2015 04:56:58	
User		
X (m)	281.365E-9	
Y (m)	-138.764E-9	
Z (m)	-4.07703E-9	
Z offset (m)	0E+0	
Settling time (s)	30E-3	
Integration time (s)	200E-3	
Z-Ctrl hold	TRUE	
Final Z (m)	-4.07703E-9	
Filter type	None	
Order		
Cutoff frq		
Current (A)	17.5679E-12	
Z (m)	-4.07703E-9	
Phase (deg)	-483.939E-3	
Amplitude (m)	40.1165E-12	
Frequency Shift (Hz)	-1.25595E+0	
Excitation (V)	19.0142E-3	

[DATA]
Bias calc (V)	Current (A)	Applied Voltage measured (V)	Bias (V)	Phase (deg)	Amplitude (m)	Frequency Shift (Hz)	Excitation (V)
1.00000E+0	17.4840E-12	999.319E-3	1.00000E+0	-53.1689E-3	40.0059E-12	-1.12607E+0	23.8423E-3
988.189E-3	17.3760E-12	987.530E-3	988.189E-3	111.346E-3	39.9888E-12	-1.04905E+0	27.9934E-3
976.378E-3	17.2088E-12	975.762E-3	976.378E-3	20.2093E-3	40.0186E-12	-1.08230E+0	23.7504E-3
964.567E-3	17.0462E-12	963.894E-3	964.567E-3	116.347E-3	39.9424E-12	-1.02444E+0	28.3399E-3
952.756E-3	17.0780E-12	952.144E-3	952.756E-3	-21.7105E-3	40.0641E-12	-1.05954E+0	23.3727E-3
940.945E-3	16.8352E-12	940.304E-3	940.945E-3	-77.2453E-3	40.0272E-12	-1.08181E+0	26.5829E-3
929.134E-3	16.5147E-12	928.478E-3	929.134E-3	-36.8134E-3	40.0114E-12	-1.07665E+0	25.3633E-3
917.323E-3	16.7218E-12	916.733E-3	917.323E-3	-63.0736E-3	40.0450E-12	-1.09016E+0	26.3850E-3
905.512E-3	16.4549E-12	904.878E-3	905.512E-3	-1.63905E-3	39.9841E-12	-1.05980E+0	24.8032E-3
893.701E-3	16.2135E-12	893.115E-3	893.701E-3	-26.1341E-3	39.9943E-12	-1.05732E+0	24.9119E-3
881.890E-3	16.2370E-12	881.265E-3	881.890E-3	26.8746E-3	40.0469E-12	-1.04209E+0	23.6973E-3
870.079E-3	16.0057E-12	869.461E-3	870.079E-3	-92.3570E-3	39.9740E-12	-1.06514E+0	26.7465E-3
858.268E-3	15.8813E-12	857.630E-3	858.268E-3	71.6846E-3	40.0000E-12	-1.02117E+0	24.6041E-3
846.457E-3	15.8407E-12	845.798E-3	846.457E-3	104.431E-3	39.9914E-12	-1.00883E+0	26.5496E-3
834.646E-3	15.5935E-12	834.027E-3	834.646E-3	173.833E-3	39.9649E-12	-979.184E-3	27.5445E-3
822.835E-3	15.4482E-12	822.213E-3	822.835E-3	-166.585E-3	40.0315E-12	-1.04200E+0	26.0457E-3
811.024E-3	15.2811E-12	810.392E-3	811.024E-3	102.467E-3	40.0372E-12	-985.119E-3	22.5365E-3
799.213E-3	15.2101E-12	798.626E-3	799.213E-3	161.261E-3	39.9634E-12	-943.512E-3	24.4171E-3
787.402E-3	14.9342E-12	786.803E-3	787.402E-3	90.7117E-3	39.9738E-12	-936.563E-3	25.1391E-3
775.591E-3	14.6530E-12	775.014E-3	775.591E-3	-36.1436E-3	39.9415E-12	-969.968E-3	27.1827E-3
763.780E-3	14.8282E-12	763.184E-3	763.780E-3	188.942E-3	40.0320E-12	-901.456E-3	26.5524E-3
751.969E-3	14.7327E-12	751.412E-3	751.969E-3	-58.7306E-3	40.0046E-12	-983.860E-3	24.2228E-3
740.157E-3	14.2599E-12	739.606E-3	740.157E-3	69.9387E-3	40.0214E-12	-959.554E-3	24.3440E-3
728.346E-3	14.1488E-12	727.772E-3	728.346E-3	84.3082E-3	39.9562E-12	-925.477E-3	26.7082E-3
716.535E-3	13.9597E-12	715.988E-3	716.535E-3	-91.8397E-3	40.0118E-12	-981.473E-3	27.1810E-3
704.724E-3	14.0323E-12	704.289E-3	704.724E-3	-54.0685E-3	40.0630E-12	-996.566E-3	23.2188E-3
692.913E-3	13.7934E-12	692.500E-3	692.913E-3	35.2223E-3	40.0017E-12	-987.133E-3	26.8541E-3
681.102E-3	13.7155E-12	680.717E-3	681.102E-3	81.5501E-3	39.9789E-12	-972.863E-3	26.4034E-3
669.291E-3	13.7594E-12	668.894E-3	669.291E-3	-102.307E-3	40.0354E-12	-997.397E-3	25.7301E-3
657.480E-3	13.0834E-12	657.060E-3	657.480E-3	-17.7013E-3	39.8895E-12	-981.090E-3	29.7771E-3
645.669E-3	13.1857E-12	645.258E-3	645.669E-3	102.918E-3	39.9574E-12	-947.641E-3	26.4250E-3
633.858E-3	13.1367E-12	633.453E-3	633.858E-3	50.2319E-3	40.0534E-12	-932.739E-3	24.1586E-3
622.047E-3	12.8276E-12	621.647E-3	622.047E-3	-91.8031E-3	39.9358E-12	-988.392E-3	27.5443E-3
610.236E-3	12.7043E-12	609.882E-3	610.236E-3	-9.10223E-3	40.0180E-12	-954.297E-3	24.3813E-3
598.425E-3	12.4979E-12	598.070E-3	598.425E-3	-1.91563E-3	39.9688E-12	-943.308E-3	24.7603E-3
586.614E-3	12.2742E-12	586.263E-3	586.614E-3	87.9610E-3	39.9084E-12	-914.605E-3	30.1561E-3
574.803E-3	12.1375E-12	574.441E-3	574.803E-3	-177.987E-3	39.9776E-12	-1.00503E+0	27.0667E-3
562.992E-3	11.9516E-12	562.655E-3	562.992E-3	162.661E-3	40.0172E-12	-909.103E-3	24.4130E-3
551.181E-3	11.9045E-12	550.841E-3	551.181E-3	-36.7541E-3	39.9581E-12	-945.848E-3	26.7823E-3
539.370E-3	11.7475E-12	538.983E-3	539.370E-3	-54.2001E-3	40.0304E-12	-967.775E-3	25.6421E-3
527.559E-3	11.3986E-12	527.190E-3	527.559E-3	36.9176E-3	39.9836E-12	-921.277E-3	23.8278E-3
515.748E-3	11.2416E-12	515.356E-3	515.748E-3	147.421E-3	40.0184E-12	-880.622E-3	23.6672E-3
503.937E-3	10.9921E-12	503.570E-3	503.937E-3	-76.5563E-3	40.0141E-12	-946.461E-3	23.3996E-3
492.126E-3	10.8909E-12	491.741E-3	492.126E-3	13.1799E-3	39.9827E-12	-925.151E-3	25.2856E-3
480.315E-3	10.5391E-12	479.934E-3	480.315E-3	135.490E-3	39.9758E-12	-888.636E-3	25.0451E-3
468.504E-3	10.4162E-12	468.148E-3	468.504E-3	-199.013E-3	39.9717E-12	-1.00702E+0	28.0663E-3
456.693E-3	10.1886E-12	456.331E-3	456.693E-3	-61.5960E-3	39.9723E-12	-987.142E-3	28.2763E-3
444.882E-3	9.94270E-12	444.566E-3	444.882E-3	109.828E-3	40.0089E-12	-925.229E-3	27.4433E-3
433.071E-3	9.79422E-12	432.732E-3	433.071E-3	77.4972E-3	40.0371E-12	-905.782E-3	25.7327E-3
421.260E-3	9.54147E-12	420.922E-3	421.260E-3	191.754E-3	40.0284E-12	-867.074E-3	25.9172E-3
409.449E-3	9.17663E-12	409.151E-3	409.449E-3	34.4249E-3	39.8964E-12	-896.719E-3	30.1775E-3
397.638E-3	9.05648E-12	397.298E-3	397.638E-3	-36.3840E-3	40.0480E-12	-945.611E-3	24.9816E-3
385.827E-3	8.79261E-12	385.536E-3	385.827E-3	26.2915E-3	39.9695E-12	-932.542E-3	26.4916E-3
374.016E-3	8.61662E-12	373.693E-3	374.016E-3	-6.71597E-3	40.0269E-12	-937.155E-3	26.4355E-3
362.205E-3	8.39964E-12	361.895E-3	362.205E-3	121.509E-3	40.0217E-12	-888.029E-3	23.6548E-3
350.394E-3	8.24543E-12	350.152E-3	350.394E-3	6.94861E-3	40.0209E-12	-930.475E-3	26.1176E-3
338.583E-3	7.94442E-12	338.301E-3	338.583E-3	-62.3725E-3	39.9509E-12	-951.163E-3	26.5502E-3
326.772E-3	7.74975E-12	326.509E-3	326.772E-3	12.5708E-3	40.0281E-12	-933.642E-3	24.7260E-3
314.961E-3	7.52826E-12	314.675E-3	314.961E-3	-63.6284E-3	40.0106E-12	-960.775E-3	24.6356E-3
303.150E-3	7.27193E-12	302.851E-3	303.150E-3	-68.0664E-3	39.9996E-12	-961.009E-3	25.3520E-3
291.339E-3	7.01431E-12	291.107E-3	291.339E-3	-36.6487E-3	40.0658E-12	-975.579E-3	23.6552E-3
279.528E-3	6.74294E-12	279.276E-3	279.528E-3	64.0791E-3	40.0347E-12	-942.621E-3	22.3924E-3
267.717E-3	6.46555E-12	267.471E-3	267.717E-3	-5.16957E-3	39.9423E-12	-962.097E-3	25.0153E-3
255.906E-3	6.16798E-12	255.640E-3	255.906E-3	35.3467E-3	39.9393E-12	-962.217E-3	27.4502E-3
244.094E-3	6.02963E-12	243.867E-3	244.094E-3	-131.677E-3	40.0176E-12	-1.01068E+0	27.1674E-3
232.283E-3	5.74172E-12	232.006E-3	232.283E-3	48.2243E-3	40.0310E-12	-982.139E-3	25.9084E-3
220.472E-3	5.55293E-12	220.179E-3	220.472E-3	83.5063E-3	40.0451E-12	-949.848E-3	24.7149E-3
208.661E-3	5.18359E-12	208.394E-3	208.661E-3	-75.1174E-3	40.0148E-12	-1.01712E+0	23.3799E-3
196.850E-3	4.94794E-12	196.564E-3	196.850E-3	76.0399E-3	40.0362E-12	-973.197E-3	24.3409E-3
185.039E-3	4.65532E-12	184.804E-3	185.039E-3	12.3584E-3	40.0198E-12	-978.203E-3	24.2813E-3
173.228E-3	4.29445E-12	172.984E-3	173.228E-3	-104.357E-3	39.9594E-12	-1.04022E+0	26.3655E-3
161.417E-3	4.08306E-12	161.159E-3	161.417E-3	-54.4296E-3	40.0703E-12	-1.03836E+0	25.5857E-3
149.606E-3	3.76366E-12	149.328E-3	149.606E-3	-8.42937E-3	39.9461E-12	-1.02550E+0	24.7402E-3
137.795E-3	3.46969E-12	137.531E-3	137.795E-3	57.2594E-3	39.9680E-12	-1.01170E+0	26.2755E-3
125.984E-3	3.14341E-12	125.769E-3	125.984E-3	-89.6301E-3	40.0245E-12	-1.05853E+0	27.0508E-3
114.173E-3	2.85011E-12	113.931E-3	114.173E-3	196.025E-3	39.9830E-12	-977.223E-3	28.3369E-3
102.362E-3	2.57693E-12	102.140E-3	102.362E-3	-7.72920E-3	40.0125E-12	-1.01775E+0	27.0372E-3
90.5512E-3	2.26632E-12	90.3316E-3	90.5512E-3	42.2669E-3	39.9428E-12	-1.01940E+0	29.7908E-3
78.7402E-3	1.92168E-12	78.4891E-3	78.7402E-3	-31.1558E-3	39.9723E-12	-1.05019E+0	27.3088E-3
66.9291E-3	1.64472E-12	66.6187E-3	66.9291E-3	51.4008E-3	40.0012E-12	-1.03208E+0	27.3684E-3
55.1181E-3	1.31744E-12	54.8384E-3	55.1181E-3	-30.4044E-3	40.0430E-12	-1.04753E+0	25.5610E-3
43.3071E-3	1.01273E-12	43.0150E-3	43.3071E-3	-50.1738E-3	39.9582E-12	-1.06779E+0	25.1860E-3
31.4961E-3	698.728E-15	31.1960E-3	31.4961E-3	-31.8815E-3	40.0092E-12	-1.08043E+0	26.4318E-3
19.6850E-3	389.515E-15	19.3960E-3	19.6850E-3	41.4503E-3	39.9893E-12	-1.06653E+0	25.3658E-3
7.87402E-3	67.9254E-15	7.54313E-3	7.87402E-3	146.203E-3	39.9972E-12	-1.02247E+0	26.6714E-3
-3.93701E-3	-232.165E-15	-4.34435E-3	-3.93701E-3	57.7628E-3	40.0089E-12	-1.06209E+0	25.8661E-3
-15.7480E-3	-553.146E-15	-16.1262E-3	-15.7480E-3	-122.189E-3	39.9458E-12	-1.12501E+0	24.0906E-3
-27.5591E-3	-862.096E-15	-27.9356E-3	-27.5591E-3	73.8738E-3	39.9525E-12	-1.08984E+0	28.2274E-3
-39.3701E-3	-1.15779E-12	-39.7038E-3	-39.3701E-3	-119.220E-3	39.9632E-12	-1.15412E+0	26.3544E-3
-51.1811E-3	-1.47608E-12	-51.5564E-3	-51.1811E-3	-6.74675E-3	39.9932E-12	-1.13604E+0	24.5576E-3
-62.9921E-3	-1.76576E-12	-63.3220E-3	-62.9921E-3	-61.3191E-3	39.9550E-12	-1.14354E+0	28.9045E-3
-74.8032E-3	-2.03883E-12	-75.1565E-3	-74.8032E-3	-142.805E-3	39.9609E-12	-1.19319E+0	29.4047E-3
-86.6142E-3	-2.18920E-12	-87.0200E-3	-86.6142E-3	-26.0741E-3	39.9840E-12	-1.15983E+0	26.3050E-3
-98.4252E-3	-2.29961E-12	-98.7919E-3	-98.4252E-3	-132.799E-3	39.9347E-12	-1.19887E+0	26.5440E-3
-110.236E-3	-2.44963E-12	-110.654E-3	-110.236E-3	74.2839E-3	40.0657E-12	-1.15836E+0	27.1265E-3
-122.047E-3	-2.53822E-12	-122.400E-3	-122.047E-3	-53.7846E-3	39.9068E-12	-1.20326E+0	26.9336E-3
-133.858E-3	-2.75387E-12	-134.256E-3	-133.858E-3	90.0907E-3	40.0291E-12	-1.16447E+0	25.6025E-3
-145.669E-3	-2.87200E-12	-146.058E-3	-145.669E-3	-58.5546E-3	39.9690E-12	-1.20894E+0	29.5016E-3
-157.480E-3	-3.09323E-12	-157.826E-3	-157.480E-3	-139.980E-3	40.0524E-12	-1.23947E+0	25.8327E-3
-169.291E-3	-3.22282E-12	-169.698E-3	-169.291E-3	63.7078E-3	39.9792E-12	-1.17835E+0	25.0961E-3
-181.102E-3	-3.34338E-12	-181.442E-3	-181.102E-3	-37.0427E-3	39.9031E-12	-1.23242E+0	29.0196E-3
-192.913E-3	-3.53066E-12	-193.251E-3	-192.913E-3	-2.99778E-3	40.0398E-12	-1.22338E+0	28.1698E-3
-204.724E-3	-3.65539E-12	-205.086E-3	-204.724E-3	12.3394E-3	40.0206E-12	-1.21146E+0	25.7759E-3
-216.535E-3	-3.74286E-12	-216.885E-3	-216.535E-3	-44.3644E-3	39.9963E-12	-1.23246E+0	26.4549E-3
-228.346E-3	-3.89864E-12	-228.703E-3	-228.346E-3	91.7687E-3	40.0074E-12	-1.20176E+0	27.5564E-3
-240.157E-3	-4.07125E-12	-240.507E-3	-240.157E-3	-61.3666E-3	40.0737E-12	-1.24414E+0	22.9158E-3
-251.969E-3	-4.22052E-12	-252.322E-3	-251.969E-3	20.8127E-3	40.0305E-12	-1.23130E+0	24.3290E-3
-263.780E-3	-4.36233E-12	-264.097E-3	-263.780E-3	-78.9972E-3	39.9600E-12	-1.27690E+0	27.3116E-3
-275.591E-3	-4.56253E-12	-275.900E-3	-275.591E-3	-17.1833E-3	39.9610E-12	-1.26729E+0	29.7191E-3
-287.402E-3	-4.70893E-12	-287.736E-3	-287.402E-3	-99.9849E-3	40.0349E-12	-1.31816E+0	25.9100E-3
-299.213E-3	-4.93739E-12	-299.529E-3	-299.213E-3	21.6121E-3	40.0222E-12	-1.29638E+0	27.1785E-3
-311.024E-3	-5.04117E-12	-311.356E-3	-311.024E-3	-72.0137E-3	40.0159E-12	-1.33504E+0	26.6492E-3
-322.835E-3	-5.17126E-12	-323.145E-3	-322.835E-3	83.3653E-3	39.9898E-12	-1.30154E+0	27.4323E-3
-334.646E-3	-5.24950E-12	-334.918E-3	-334.646E-3	-199.400E-3	40.0781E-12	-1.39629E+0	26.5459E-3
-346.457E-3	-5.42992E-12	-346.747E-3	-346.457E-3	-14.6799E-3	39.9439E-12	-1.33692E+0	25.2954E-3
-358.268E-3	-5.52194E-12	-358.592E-3	-358.268E-3	-55.4864E-3	39.9700E-12	-1.38648E+0	27.9104E-3
-370.079E-3	-5.76098E-12	-370.388E-3	-370.079E-3	40.0355E-3	40.0216E-12	-1.35896E+0	24.9178E-3
-381.890E-3	-5.96245E-12	-382.156E-3	-381.890E-3	23.4282E-3	40.0112E-12	-1.36514E+0	26.8228E-3
-393.701E-3	-6.00287E-12	-394.028E-3	-393.701E-3	-1.64116E-3	39.9705E-12	-1.37160E+0	25.2400E-3
-405.512E-3	-6.23747E-12	-405.833E-3	-405.512E-3	-179.316E-3	40.0049E-12	-1.43674E+0	23.9269E-3
-417.323E-3	-6.33060E-12	-417.639E-3	-417.323E-3	62.4030E-3	39.9165E-12	-1.39838E+0	28.8416E-3
-429.134E-3	-6.56361E-12	-429.449E-3	-429.134E-3	-38.3353E-3	40.0479E-12	-1.41612E+0	25.7742E-3
-440.945E-3	-6.75072E-12	-441.242E-3	-440.945E-3	-44.7539E-3	39.9518E-12	-1.43203E+0	28.2166E-3
-452.756E-3	-7.01839E-12	-453.044E-3	-452.756E-3	255.585E-6	40.0284E-12	-1.43362E+0	25.3654E-3
-464.567E-3	-7.22287E-12	-464.866E-3	-464.567E-3	53.7429E-3	39.9844E-12	-1.41875E+0	25.2923E-3
-476.378E-3	-7.52038E-12	-476.699E-3	-476.378E-3	-199.450E-3	40.0166E-12	-1.50922E+0	26.3965E-3
-488.189E-3	-7.76848E-12	-488.420E-3	-488.189E-3	-143.968E-3	39.9448E-12	-1.52661E+0	29.4759E-3
-500.000E-3	-8.16886E-12	-500.264E-3	-500.000E-3	-6.79059E-3	40.0459E-12	-1.51652E+0	27.0445E-3
