Experiment	bias spectroscopy	
Date	01.12.2015 09:27:00	
User		
X (m)	281.558E-9	
Y (m)	-137.36E-9	
Z (m)	-4.07703E-9	
Z offset (m)	0E+0	
Settling time (s)	30E-3	
Integration time (s)	200E-3	
Z-Ctrl hold	TRUE	
Final Z (m)	-4.07703E-9	
Filter type	None	
Order		
Cutoff frq		
Current (A)	15.6807E-12	
Z (m)	-4.07703E-9	
Phase (deg)	1.06292E+0	
Amplitude (m)	39.9179E-12	
Frequency Shift (Hz)	-757.388E-3	
Excitation (V)	31.3076E-3	

[DATA]
Bias calc (V)	Current (A)	Applied Voltage measured (V)	Bias (V)	Phase (deg)	Amplitude (m)	Frequency Shift (Hz)	Excitation (V)
1.00000E+0	15.6979E-12	999.328E-3	1.00000E+0	-37.8312E-3	39.9516E-12	-1.10835E+0	26.7298E-3
988.189E-3	15.6137E-12	987.531E-3	988.189E-3	42.7993E-3	40.0278E-12	-1.07873E+0	25.8770E-3
976.378E-3	15.5516E-12	975.769E-3	976.378E-3	-64.4424E-3	39.9744E-12	-1.11828E+0	27.2561E-3
964.567E-3	15.2632E-12	963.907E-3	964.567E-3	-1.98609E-3	39.9500E-12	-1.10610E+0	29.5653E-3
952.756E-3	15.2716E-12	952.150E-3	952.756E-3	38.8523E-3	40.0386E-12	-1.08892E+0	28.1393E-3
940.945E-3	14.9980E-12	940.323E-3	940.945E-3	73.1452E-3	39.9885E-12	-1.05503E+0	23.8973E-3
929.134E-3	14.9140E-12	928.501E-3	929.134E-3	-4.89813E-3	39.9815E-12	-1.07763E+0	27.1968E-3
917.323E-3	14.8107E-12	916.746E-3	917.323E-3	28.9795E-3	39.9613E-12	-1.04231E+0	27.4618E-3
905.512E-3	14.5970E-12	904.887E-3	905.512E-3	13.5904E-3	40.0190E-12	-1.04697E+0	23.4602E-3
893.701E-3	14.4972E-12	893.146E-3	893.701E-3	38.2813E-3	40.0638E-12	-1.04751E+0	26.4568E-3
881.890E-3	14.4912E-12	881.299E-3	881.890E-3	-61.1439E-3	40.0047E-12	-1.04868E+0	25.7906E-3
870.079E-3	14.1299E-12	869.488E-3	870.079E-3	54.0335E-3	39.9467E-12	-1.02781E+0	25.7477E-3
858.268E-3	14.0794E-12	857.666E-3	858.268E-3	42.2460E-3	39.9983E-12	-1.01202E+0	24.6451E-3
846.457E-3	13.7855E-12	845.832E-3	846.457E-3	125.943E-3	39.9593E-12	-977.635E-3	25.5089E-3
834.646E-3	13.6988E-12	834.055E-3	834.646E-3	-44.8718E-3	39.9368E-12	-1.02006E+0	27.8589E-3
822.835E-3	13.6703E-12	822.241E-3	822.835E-3	64.0150E-3	40.0154E-12	-995.449E-3	25.1897E-3
811.024E-3	13.5503E-12	810.423E-3	811.024E-3	-20.9330E-3	40.0304E-12	-1.00961E+0	26.5926E-3
799.213E-3	13.2451E-12	798.652E-3	799.213E-3	20.0144E-3	39.9654E-12	-1.00220E+0	26.8169E-3
787.402E-3	13.1933E-12	786.825E-3	787.402E-3	-58.5720E-3	40.0323E-12	-998.092E-3	26.3204E-3
775.591E-3	12.9522E-12	775.033E-3	775.591E-3	2.49971E-3	40.0036E-12	-987.604E-3	24.6612E-3
763.780E-3	12.7355E-12	763.210E-3	763.780E-3	-135.618E-3	39.9699E-12	-1.02176E+0	25.3504E-3
751.969E-3	12.7603E-12	751.436E-3	751.969E-3	-15.9126E-3	39.9941E-12	-1.01012E+0	24.4781E-3
740.157E-3	12.7510E-12	739.630E-3	740.157E-3	69.9870E-3	40.0677E-12	-981.391E-3	24.7774E-3
728.346E-3	12.6451E-12	727.786E-3	728.346E-3	145.869E-3	40.0454E-12	-944.672E-3	24.5664E-3
716.535E-3	12.3020E-12	716.001E-3	716.535E-3	26.3593E-3	40.0256E-12	-977.237E-3	26.9291E-3
704.724E-3	12.1221E-12	704.314E-3	704.724E-3	-12.3259E-3	39.9247E-12	-981.078E-3	26.6250E-3
692.913E-3	12.0085E-12	692.511E-3	692.913E-3	111.546E-3	39.9920E-12	-943.761E-3	25.6721E-3
681.102E-3	11.8783E-12	680.735E-3	681.102E-3	22.5451E-3	40.0332E-12	-954.464E-3	25.6265E-3
669.291E-3	11.7071E-12	668.915E-3	669.291E-3	13.0308E-3	40.0592E-12	-924.326E-3	22.8879E-3
657.480E-3	11.5996E-12	657.079E-3	657.480E-3	-128.355E-3	40.0288E-12	-969.997E-3	25.9543E-3
645.669E-3	11.3770E-12	645.275E-3	645.669E-3	-47.2998E-3	39.9272E-12	-963.266E-3	29.1508E-3
633.858E-3	11.5207E-12	633.463E-3	633.858E-3	-10.8251E-3	40.1168E-12	-953.559E-3	22.9450E-3
622.047E-3	11.1747E-12	621.656E-3	622.047E-3	-17.3366E-3	39.9713E-12	-967.517E-3	26.7515E-3
610.236E-3	10.8278E-12	609.895E-3	610.236E-3	-80.1124E-3	39.9871E-12	-1.00075E+0	26.4108E-3
598.425E-3	10.8201E-12	598.092E-3	598.425E-3	-32.9911E-3	39.9885E-12	-948.814E-3	25.5763E-3
586.614E-3	10.5669E-12	586.277E-3	586.614E-3	-32.8058E-3	40.0263E-12	-947.749E-3	25.5350E-3
574.803E-3	10.4407E-12	574.459E-3	574.803E-3	50.1348E-3	39.9622E-12	-946.347E-3	26.4435E-3
562.992E-3	10.2530E-12	562.681E-3	562.992E-3	71.7615E-3	39.9597E-12	-909.646E-3	26.7132E-3
551.181E-3	10.1423E-12	550.868E-3	551.181E-3	31.2748E-3	39.9677E-12	-926.200E-3	26.7911E-3
539.370E-3	9.94631E-12	539.006E-3	539.370E-3	-70.8442E-3	40.0211E-12	-960.861E-3	24.8889E-3
527.559E-3	9.76318E-12	527.225E-3	527.559E-3	33.6400E-3	40.0130E-12	-943.063E-3	27.8450E-3
515.748E-3	9.62798E-12	515.391E-3	515.748E-3	-76.0152E-3	40.0419E-12	-983.161E-3	24.4952E-3
503.937E-3	9.38398E-12	503.604E-3	503.937E-3	106.032E-3	39.9506E-12	-940.900E-3	27.3789E-3
492.126E-3	9.08534E-12	491.783E-3	492.126E-3	-18.7475E-3	39.9287E-12	-979.231E-3	25.2970E-3
480.315E-3	9.09078E-12	479.965E-3	480.315E-3	183.974E-3	40.0079E-12	-894.501E-3	25.4552E-3
468.504E-3	8.82839E-12	468.173E-3	468.504E-3	-19.8413E-3	39.9599E-12	-959.389E-3	26.9728E-3
456.693E-3	8.62639E-12	456.368E-3	456.693E-3	72.0856E-3	39.9249E-12	-925.094E-3	29.7031E-3
444.882E-3	8.46570E-12	444.595E-3	444.882E-3	-107.762E-3	40.0281E-12	-984.826E-3	25.9650E-3
433.071E-3	8.26990E-12	432.762E-3	433.071E-3	-2.93058E-3	40.0642E-12	-973.926E-3	22.9303E-3
421.260E-3	8.03878E-12	420.962E-3	421.260E-3	-10.3598E-3	39.9283E-12	-992.716E-3	28.1011E-3
409.449E-3	7.82052E-12	409.182E-3	409.449E-3	108.317E-3	40.0198E-12	-953.100E-3	28.2772E-3
397.638E-3	7.67832E-12	397.339E-3	397.638E-3	-22.8710E-3	40.0465E-12	-973.481E-3	22.7453E-3
385.827E-3	7.50646E-12	385.576E-3	385.827E-3	132.770E-3	39.9930E-12	-926.816E-3	28.6172E-3
374.016E-3	7.21429E-12	373.725E-3	374.016E-3	12.6690E-3	39.9925E-12	-938.049E-3	25.9825E-3
362.205E-3	7.03327E-12	361.926E-3	362.205E-3	-65.4999E-3	40.0041E-12	-966.561E-3	25.5662E-3
350.394E-3	6.78037E-12	350.186E-3	350.394E-3	-64.8346E-3	40.0310E-12	-977.188E-3	24.4808E-3
338.583E-3	6.58838E-12	338.325E-3	338.583E-3	76.6479E-3	40.0126E-12	-930.494E-3	23.0344E-3
326.772E-3	6.37557E-12	326.538E-3	326.772E-3	-121.219E-3	39.9445E-12	-983.617E-3	24.3480E-3
314.961E-3	6.24276E-12	314.699E-3	314.961E-3	79.0142E-3	40.0031E-12	-919.740E-3	28.7408E-3
303.150E-3	5.96037E-12	302.877E-3	303.150E-3	-149.760E-3	40.0615E-12	-1.02239E+0	22.4121E-3
291.339E-3	5.81566E-12	291.133E-3	291.339E-3	-62.9421E-3	40.0185E-12	-998.263E-3	25.2032E-3
279.528E-3	5.69134E-12	279.306E-3	279.528E-3	41.2038E-3	40.0415E-12	-990.262E-3	24.4535E-3
267.717E-3	5.32174E-12	267.491E-3	267.717E-3	80.7375E-3	39.9737E-12	-957.267E-3	26.9366E-3
255.906E-3	5.22094E-12	255.670E-3	255.906E-3	-92.7104E-3	40.0557E-12	-1.01925E+0	26.0643E-3
244.094E-3	4.93581E-12	243.885E-3	244.094E-3	-42.3741E-3	39.9355E-12	-1.00707E+0	28.9753E-3
232.283E-3	4.79904E-12	232.030E-3	232.283E-3	8.98359E-3	40.0007E-12	-982.324E-3	24.9349E-3
220.472E-3	4.60730E-12	220.199E-3	220.472E-3	-222.592E-3	40.0054E-12	-1.05778E+0	27.3715E-3
208.661E-3	4.38034E-12	208.416E-3	208.661E-3	325.212E-3	39.9999E-12	-926.385E-3	25.7071E-3
196.850E-3	4.11869E-12	196.587E-3	196.850E-3	-24.2734E-3	39.9787E-12	-1.00224E+0	29.2734E-3
185.039E-3	3.89981E-12	184.814E-3	185.039E-3	-51.6311E-3	39.9630E-12	-1.03105E+0	27.9721E-3
173.228E-3	3.71874E-12	173.014E-3	173.228E-3	-115.430E-3	40.0086E-12	-1.04417E+0	25.3255E-3
161.417E-3	3.49262E-12	161.177E-3	161.417E-3	-38.4394E-3	39.9659E-12	-1.02096E+0	26.3006E-3
149.606E-3	3.23569E-12	149.353E-3	149.606E-3	-38.0587E-3	39.9767E-12	-1.01397E+0	25.5563E-3
137.795E-3	3.03962E-12	137.564E-3	137.795E-3	15.0243E-3	40.0299E-12	-1.01016E+0	25.4386E-3
125.984E-3	2.77585E-12	125.796E-3	125.984E-3	-78.4699E-3	39.9601E-12	-1.05483E+0	27.0701E-3
114.173E-3	2.53235E-12	113.962E-3	114.173E-3	108.496E-3	40.0462E-12	-983.667E-3	23.3876E-3
102.362E-3	2.27456E-12	102.163E-3	102.362E-3	-104.348E-3	40.0165E-12	-1.06902E+0	28.7251E-3
90.5512E-3	2.04491E-12	90.3531E-3	90.5512E-3	127.744E-3	39.9808E-12	-1.00572E+0	25.2907E-3
78.7402E-3	1.77625E-12	78.5075E-3	78.7402E-3	-43.0403E-3	40.0302E-12	-1.05933E+0	26.6140E-3
66.9291E-3	1.50304E-12	66.6407E-3	66.9291E-3	193.443E-3	39.9743E-12	-973.995E-3	24.8094E-3
55.1181E-3	1.25787E-12	54.8640E-3	55.1181E-3	-129.990E-3	39.9748E-12	-1.07509E+0	25.3077E-3
43.3071E-3	963.020E-15	43.0439E-3	43.3071E-3	5.80439E-3	39.9984E-12	-1.03993E+0	26.9366E-3
31.4961E-3	680.213E-15	31.2158E-3	31.4961E-3	-46.5338E-3	39.9701E-12	-1.07150E+0	27.3149E-3
19.6850E-3	392.323E-15	19.4256E-3	19.6850E-3	-8.31740E-3	40.0215E-12	-1.06659E+0	26.0806E-3
7.87402E-3	87.1100E-15	7.57275E-3	7.87402E-3	-92.0990E-3	40.0279E-12	-1.11627E+0	25.9047E-3
-3.93701E-3	-224.113E-15	-4.32297E-3	-3.93701E-3	-4.16587E-3	40.0021E-12	-1.12394E+0	25.6014E-3
-15.7480E-3	-560.216E-15	-16.1084E-3	-15.7480E-3	13.8059E-3	40.0290E-12	-1.11591E+0	22.1301E-3
-27.5591E-3	-868.979E-15	-27.9221E-3	-27.5591E-3	-28.9774E-3	39.9532E-12	-1.12152E+0	28.2616E-3
-39.3701E-3	-1.20188E-12	-39.6798E-3	-39.3701E-3	11.4506E-3	39.9591E-12	-1.11445E+0	27.6291E-3
-51.1811E-3	-1.54336E-12	-51.5320E-3	-51.1811E-3	-60.0684E-3	40.0268E-12	-1.13311E+0	24.7759E-3
-62.9921E-3	-1.87128E-12	-63.3120E-3	-62.9921E-3	-218.977E-3	39.9746E-12	-1.23278E+0	27.4216E-3
-74.8032E-3	-2.08977E-12	-75.1434E-3	-74.8032E-3	101.311E-3	39.9835E-12	-1.14822E+0	28.2113E-3
-86.6142E-3	-2.21573E-12	-86.9949E-3	-86.6142E-3	55.6701E-3	39.9914E-12	-1.15580E+0	28.8335E-3
-98.4252E-3	-2.31877E-12	-98.7706E-3	-98.4252E-3	-4.88016E-3	40.0440E-12	-1.15819E+0	23.3167E-3
-110.236E-3	-2.46851E-12	-110.622E-3	-110.236E-3	22.2584E-3	39.9841E-12	-1.14225E+0	27.9230E-3
-122.047E-3	-2.59067E-12	-122.362E-3	-122.047E-3	54.1664E-6	40.0317E-12	-1.16185E+0	24.9054E-3
-133.858E-3	-2.71224E-12	-134.222E-3	-133.858E-3	-97.6980E-3	40.0127E-12	-1.20098E+0	23.9606E-3
-145.669E-3	-2.92344E-12	-146.029E-3	-145.669E-3	1.27748E-3	40.0145E-12	-1.18175E+0	26.9469E-3
-157.480E-3	-3.03518E-12	-157.797E-3	-157.480E-3	-91.4664E-3	40.0359E-12	-1.21829E+0	26.3799E-3
-169.291E-3	-3.18984E-12	-169.669E-3	-169.291E-3	-63.0665E-3	39.9782E-12	-1.23644E+0	24.6052E-3
-181.102E-3	-3.30517E-12	-181.409E-3	-181.102E-3	12.7339E-3	40.0256E-12	-1.21014E+0	25.4329E-3
-192.913E-3	-3.44514E-12	-193.217E-3	-192.913E-3	-115.151E-3	39.9978E-12	-1.24917E+0	24.8765E-3
-204.724E-3	-3.57976E-12	-205.049E-3	-204.724E-3	-4.25554E-3	40.0241E-12	-1.23023E+0	26.8085E-3
-216.535E-3	-3.72012E-12	-216.846E-3	-216.535E-3	-8.74464E-3	39.9318E-12	-1.24400E+0	30.5280E-3
-228.346E-3	-3.84887E-12	-228.663E-3	-228.346E-3	-82.0890E-3	40.0505E-12	-1.27633E+0	23.7277E-3
-240.157E-3	-3.98330E-12	-240.468E-3	-240.157E-3	-16.0368E-3	40.0108E-12	-1.26973E+0	26.6990E-3
-251.969E-3	-4.22539E-12	-252.292E-3	-251.969E-3	12.3649E-3	40.0471E-12	-1.26110E+0	24.9828E-3
-263.780E-3	-4.29905E-12	-264.044E-3	-263.780E-3	-1.29326E-3	39.9200E-12	-1.27895E+0	27.2413E-3
-275.591E-3	-4.54797E-12	-275.860E-3	-275.591E-3	11.9645E-3	40.0725E-12	-1.29132E+0	21.9529E-3
-287.402E-3	-4.69864E-12	-287.703E-3	-287.402E-3	82.3919E-3	39.9042E-12	-1.27861E+0	30.1771E-3
-299.213E-3	-4.92322E-12	-299.500E-3	-299.213E-3	-46.9224E-3	40.0005E-12	-1.32854E+0	26.7987E-3
-311.024E-3	-5.03460E-12	-311.330E-3	-311.024E-3	158.884E-3	40.0136E-12	-1.28067E+0	26.1852E-3
-322.835E-3	-5.07934E-12	-323.123E-3	-322.835E-3	-91.4216E-3	39.9964E-12	-1.34655E+0	24.8558E-3
-334.646E-3	-5.20495E-12	-334.899E-3	-334.646E-3	-34.1714E-3	39.9850E-12	-1.35274E+0	26.2635E-3
-346.457E-3	-5.34310E-12	-346.710E-3	-346.457E-3	-61.8666E-3	40.0214E-12	-1.36715E+0	26.2995E-3
-358.268E-3	-5.46209E-12	-358.558E-3	-358.268E-3	-155.209E-3	40.0101E-12	-1.40987E+0	29.9792E-3
-370.079E-3	-5.59011E-12	-370.353E-3	-370.079E-3	60.4743E-3	40.0235E-12	-1.34403E+0	26.5104E-3
-381.890E-3	-5.67860E-12	-382.115E-3	-381.890E-3	-115.641E-3	40.0076E-12	-1.41602E+0	27.5362E-3
-393.701E-3	-5.84566E-12	-393.982E-3	-393.701E-3	19.3141E-3	40.1183E-12	-1.38176E+0	22.5715E-3
-405.512E-3	-5.89689E-12	-405.799E-3	-405.512E-3	-119.834E-3	39.9448E-12	-1.44410E+0	28.5645E-3
-417.323E-3	-6.17281E-12	-417.603E-3	-417.323E-3	130.305E-3	40.0552E-12	-1.38164E+0	25.0980E-3
-429.134E-3	-6.24247E-12	-429.411E-3	-429.134E-3	-128.987E-3	39.9696E-12	-1.45773E+0	28.4388E-3
-440.945E-3	-6.52339E-12	-441.210E-3	-440.945E-3	30.1510E-3	39.9948E-12	-1.41255E+0	26.0678E-3
-452.756E-3	-6.60835E-12	-453.021E-3	-452.756E-3	-141.096E-3	39.9603E-12	-1.48413E+0	28.6990E-3
-464.567E-3	-6.98537E-12	-464.848E-3	-464.567E-3	-9.70826E-3	40.0724E-12	-1.47879E+0	26.9687E-3
-476.378E-3	-7.17599E-12	-476.670E-3	-476.378E-3	-12.2059E-3	39.9589E-12	-1.48128E+0	27.9260E-3
-488.189E-3	-7.40270E-12	-488.400E-3	-488.189E-3	-157.000E-3	39.9798E-12	-1.53985E+0	25.9485E-3
-500.000E-3	-7.89364E-12	-500.244E-3	-500.000E-3	-15.5308E-3	40.0032E-12	-1.51336E+0	28.5604E-3
