Experiment	bias spectroscopy	
Date	01.12.2015 09:24:06	
User		
X (m)	282.601E-9	
Y (m)	-138.662E-9	
Z (m)	-4.07703E-9	
Z offset (m)	0E+0	
Settling time (s)	30E-3	
Integration time (s)	200E-3	
Z-Ctrl hold	TRUE	
Final Z (m)	-4.07703E-9	
Filter type	None	
Order		
Cutoff frq		
Current (A)	15.8552E-12	
Z (m)	-4.07703E-9	
Phase (deg)	-135.39E-3	
Amplitude (m)	39.8577E-12	
Frequency Shift (Hz)	-1.12075E+0	
Excitation (V)	22.726E-3	

[DATA]
Bias calc (V)	Current (A)	Applied Voltage measured (V)	Bias (V)	Phase (deg)	Amplitude (m)	Frequency Shift (Hz)	Excitation (V)
1.00000E+0	15.5424E-12	999.354E-3	1.00000E+0	112.328E-3	40.0281E-12	-1.07930E+0	25.1449E-3
988.189E-3	15.5768E-12	987.558E-3	988.189E-3	-68.9706E-3	40.0361E-12	-1.11534E+0	26.5236E-3
976.378E-3	15.4221E-12	975.786E-3	976.378E-3	115.760E-3	39.9525E-12	-1.03584E+0	26.0604E-3
964.567E-3	15.3842E-12	963.923E-3	964.567E-3	14.6665E-3	40.0234E-12	-1.07214E+0	24.0720E-3
952.756E-3	15.0182E-12	952.166E-3	952.756E-3	-33.1283E-3	39.9503E-12	-1.07090E+0	25.9756E-3
940.945E-3	14.8328E-12	940.327E-3	940.945E-3	-25.1794E-3	40.0338E-12	-1.06903E+0	25.2017E-3
929.134E-3	14.8895E-12	928.508E-3	929.134E-3	-18.2483E-3	39.9602E-12	-1.05863E+0	28.3051E-3
917.323E-3	14.8924E-12	916.758E-3	917.323E-3	16.1114E-3	40.0354E-12	-1.05288E+0	24.9347E-3
905.512E-3	14.4741E-12	904.894E-3	905.512E-3	3.20337E-3	39.9421E-12	-1.06771E+0	28.8416E-3
893.701E-3	14.5359E-12	893.130E-3	893.701E-3	28.1847E-3	39.9740E-12	-1.02785E+0	23.5312E-3
881.890E-3	14.2612E-12	881.296E-3	881.890E-3	22.8759E-3	39.9880E-12	-1.04352E+0	25.8025E-3
870.079E-3	14.1624E-12	869.492E-3	870.079E-3	32.4206E-3	40.0215E-12	-1.03566E+0	25.2536E-3
858.268E-3	13.9679E-12	857.671E-3	858.268E-3	103.780E-3	40.0284E-12	-1.00652E+0	24.4492E-3
846.457E-3	13.9186E-12	845.836E-3	846.457E-3	19.2569E-3	39.9960E-12	-1.01634E+0	25.1840E-3
834.646E-3	13.7134E-12	834.054E-3	834.646E-3	-10.2529E-3	40.0183E-12	-1.01935E+0	25.1683E-3
822.835E-3	13.7401E-12	822.244E-3	822.835E-3	6.64131E-3	40.0215E-12	-1.02169E+0	25.7216E-3
811.024E-3	13.5909E-12	810.412E-3	811.024E-3	-49.7828E-3	40.0547E-12	-1.01418E+0	22.4460E-3
799.213E-3	13.1598E-12	798.653E-3	799.213E-3	32.9255E-3	39.9129E-12	-1.00257E+0	28.9943E-3
787.402E-3	13.2336E-12	786.816E-3	787.402E-3	56.8681E-3	40.0380E-12	-983.074E-3	28.2409E-3
775.591E-3	13.1150E-12	775.024E-3	775.591E-3	-102.058E-3	40.0014E-12	-1.02891E+0	23.9982E-3
763.780E-3	12.9557E-12	763.197E-3	763.780E-3	-41.0974E-3	40.0018E-12	-1.00974E+0	24.9524E-3
751.969E-3	12.6395E-12	751.425E-3	751.969E-3	-22.0684E-3	40.0513E-12	-1.02146E+0	24.2447E-3
740.157E-3	12.5729E-12	739.616E-3	740.157E-3	72.5463E-3	39.9898E-12	-984.951E-3	28.0618E-3
728.346E-3	12.6752E-12	727.784E-3	728.346E-3	63.4653E-3	40.0051E-12	-964.607E-3	26.9890E-3
716.535E-3	12.5164E-12	716.007E-3	716.535E-3	25.9385E-3	40.0159E-12	-965.960E-3	26.1462E-3
704.724E-3	12.3281E-12	704.313E-3	704.724E-3	126.236E-3	40.0142E-12	-945.426E-3	23.5022E-3
692.913E-3	12.0570E-12	692.515E-3	692.913E-3	12.3528E-3	39.9897E-12	-954.890E-3	25.1689E-3
681.102E-3	11.9001E-12	680.740E-3	681.102E-3	-10.6798E-3	40.0247E-12	-969.518E-3	27.0331E-3
669.291E-3	11.7010E-12	668.911E-3	669.291E-3	21.2400E-3	40.0661E-12	-946.262E-3	25.4286E-3
657.480E-3	11.5319E-12	657.081E-3	657.480E-3	-40.4932E-3	39.9986E-12	-978.484E-3	22.8921E-3
645.669E-3	11.6513E-12	645.273E-3	645.669E-3	-145.013E-3	40.0608E-12	-1.01782E+0	23.5996E-3
633.858E-3	10.9025E-12	633.475E-3	633.858E-3	140.498E-3	39.9524E-12	-920.468E-3	26.4518E-3
622.047E-3	11.1502E-12	621.663E-3	622.047E-3	126.261E-3	40.0144E-12	-917.952E-3	25.3803E-3
610.236E-3	10.9189E-12	609.897E-3	610.236E-3	25.6705E-3	40.0182E-12	-929.627E-3	26.1547E-3
598.425E-3	10.7362E-12	598.090E-3	598.425E-3	133.631E-3	39.9545E-12	-901.795E-3	25.4954E-3
586.614E-3	10.4823E-12	586.290E-3	586.614E-3	-50.2794E-3	40.0711E-12	-937.940E-3	24.2444E-3
574.803E-3	10.4122E-12	574.467E-3	574.803E-3	-22.4411E-3	39.9392E-12	-954.417E-3	30.4484E-3
562.992E-3	10.2089E-12	562.690E-3	562.992E-3	-123.556E-3	39.9923E-12	-985.336E-3	28.5151E-3
551.181E-3	10.0413E-12	550.877E-3	551.181E-3	-1.61075E-6	40.0096E-12	-971.548E-3	25.3524E-3
539.370E-3	9.83572E-12	539.011E-3	539.370E-3	-4.08276E-3	39.9509E-12	-960.727E-3	28.8716E-3
527.559E-3	9.74219E-12	527.217E-3	527.559E-3	174.004E-3	40.0144E-12	-891.805E-3	25.9693E-3
515.748E-3	9.52257E-12	515.387E-3	515.748E-3	-147.478E-3	40.0441E-12	-1.00520E+0	25.2965E-3
503.937E-3	9.24088E-12	503.597E-3	503.937E-3	117.372E-3	39.9800E-12	-929.008E-3	26.1464E-3
492.126E-3	9.11318E-12	491.772E-3	492.126E-3	43.8796E-3	39.9572E-12	-933.204E-3	28.7784E-3
480.315E-3	8.81712E-12	479.969E-3	480.315E-3	-123.883E-3	39.9659E-12	-1.01056E+0	25.3998E-3
468.504E-3	8.76177E-12	468.173E-3	468.504E-3	119.712E-3	40.0298E-12	-924.664E-3	25.4330E-3
456.693E-3	8.52990E-12	456.359E-3	456.693E-3	-34.2517E-3	40.0110E-12	-967.983E-3	23.6111E-3
444.882E-3	8.45134E-12	444.593E-3	444.882E-3	18.1810E-3	39.9465E-12	-940.697E-3	27.8999E-3
433.071E-3	8.24956E-12	432.760E-3	433.071E-3	123.485E-3	39.9989E-12	-912.111E-3	26.6162E-3
421.260E-3	8.09930E-12	420.951E-3	421.260E-3	73.2459E-3	39.9995E-12	-910.515E-3	25.1925E-3
409.449E-3	7.81542E-12	409.166E-3	409.449E-3	37.0981E-3	40.0108E-12	-943.852E-3	23.6976E-3
397.638E-3	7.65306E-12	397.324E-3	397.638E-3	-46.7356E-3	39.9786E-12	-983.623E-3	27.5887E-3
385.827E-3	7.49300E-12	385.568E-3	385.827E-3	15.8687E-3	40.0114E-12	-952.688E-3	23.7362E-3
374.016E-3	7.38220E-12	373.717E-3	374.016E-3	83.9321E-3	40.0706E-12	-904.507E-3	25.0698E-3
362.205E-3	7.09711E-12	361.916E-3	362.205E-3	-84.6969E-3	40.0556E-12	-981.855E-3	25.0947E-3
350.394E-3	6.92482E-12	350.167E-3	350.394E-3	61.7671E-3	40.0108E-12	-941.037E-3	26.1793E-3
338.583E-3	6.68328E-12	338.311E-3	338.583E-3	1.89273E-3	39.9656E-12	-947.986E-3	24.8629E-3
326.772E-3	6.47005E-12	326.520E-3	326.772E-3	-68.2274E-3	39.9840E-12	-962.333E-3	26.9287E-3
314.961E-3	6.38917E-12	314.678E-3	314.961E-3	27.0273E-3	39.9899E-12	-941.084E-3	26.0792E-3
303.150E-3	6.18128E-12	302.863E-3	303.150E-3	-346.426E-3	40.0160E-12	-1.07752E+0	26.4540E-3
291.339E-3	6.02413E-12	291.111E-3	291.339E-3	45.7550E-3	39.9733E-12	-946.147E-3	28.9700E-3
279.528E-3	5.64086E-12	279.281E-3	279.528E-3	-29.5657E-3	40.0109E-12	-970.074E-3	26.8093E-3
267.717E-3	5.43771E-12	267.471E-3	267.717E-3	-193.921E-3	39.9460E-12	-1.02902E+0	29.1902E-3
255.906E-3	5.25746E-12	255.646E-3	255.906E-3	94.5706E-3	39.9944E-12	-955.746E-3	27.2658E-3
244.094E-3	5.07381E-12	243.878E-3	244.094E-3	26.6708E-3	40.0490E-12	-967.677E-3	21.9314E-3
232.283E-3	4.82839E-12	232.014E-3	232.283E-3	123.866E-3	40.0170E-12	-945.001E-3	25.5256E-3
220.472E-3	4.58601E-12	220.182E-3	220.472E-3	-107.330E-3	39.9354E-12	-1.01170E+0	29.3036E-3
208.661E-3	4.39067E-12	208.399E-3	208.661E-3	-14.6661E-3	39.9756E-12	-1.00552E+0	26.7553E-3
196.850E-3	4.22571E-12	196.566E-3	196.850E-3	-55.0394E-3	40.0509E-12	-1.03756E+0	25.0169E-3
185.039E-3	3.91875E-12	184.801E-3	185.039E-3	-35.3160E-3	39.9779E-12	-1.03641E+0	24.5936E-3
173.228E-3	3.66646E-12	172.991E-3	173.228E-3	120.637E-3	40.0341E-12	-1.00025E+0	25.5885E-3
161.417E-3	3.46630E-12	161.157E-3	161.417E-3	-124.574E-3	40.0178E-12	-1.05529E+0	25.2416E-3
149.606E-3	3.22241E-12	149.338E-3	149.606E-3	-182.645E-3	40.0383E-12	-1.09576E+0	23.8824E-3
137.795E-3	2.93261E-12	137.554E-3	137.795E-3	147.003E-3	39.9018E-12	-1.00940E+0	30.1726E-3
125.984E-3	2.73792E-12	125.787E-3	125.984E-3	134.086E-3	39.9921E-12	-1.00336E+0	28.1100E-3
114.173E-3	2.43346E-12	113.955E-3	114.173E-3	-62.4301E-3	39.9835E-12	-1.04657E+0	25.9719E-3
102.362E-3	2.19175E-12	102.155E-3	102.362E-3	18.4617E-3	39.9732E-12	-1.04450E+0	27.1615E-3
90.5512E-3	1.97565E-12	90.3360E-3	90.5512E-3	-24.5326E-3	39.9424E-12	-1.06365E+0	26.6011E-3
78.7402E-3	1.70555E-12	78.5029E-3	78.7402E-3	-114.467E-3	39.9626E-12	-1.07399E+0	27.3119E-3
66.9291E-3	1.44192E-12	66.6335E-3	66.9291E-3	114.565E-3	40.0612E-12	-1.02978E+0	26.2458E-3
55.1181E-3	1.17706E-12	54.8597E-3	55.1181E-3	-105.678E-3	40.0117E-12	-1.10128E+0	26.6370E-3
43.3071E-3	934.378E-15	43.0406E-3	43.3071E-3	-60.2457E-3	39.9830E-12	-1.11829E+0	26.6949E-3
31.4961E-3	645.017E-15	31.2175E-3	31.4961E-3	47.9153E-3	39.9650E-12	-1.08267E+0	25.9241E-3
19.6850E-3	349.128E-15	19.4091E-3	19.6850E-3	96.0369E-3	39.9096E-12	-1.05307E+0	25.9927E-3
7.87402E-3	64.3534E-15	7.56058E-3	7.87402E-3	-15.3538E-3	39.9886E-12	-1.10137E+0	27.1470E-3
-3.93701E-3	-220.443E-15	-4.33220E-3	-3.93701E-3	137.371E-3	40.0082E-12	-1.04884E+0	23.8717E-3
-15.7480E-3	-512.164E-15	-16.1116E-3	-15.7480E-3	47.3358E-3	40.0412E-12	-1.06323E+0	27.9731E-3
-27.5591E-3	-843.897E-15	-27.9181E-3	-27.5591E-3	-183.011E-3	40.0812E-12	-1.14301E+0	23.5363E-3
-39.3701E-3	-1.18132E-12	-39.6755E-3	-39.3701E-3	-83.5968E-3	39.9512E-12	-1.12788E+0	24.6074E-3
-51.1811E-3	-1.54711E-12	-51.5454E-3	-51.1811E-3	62.8597E-3	40.0235E-12	-1.12092E+0	25.2524E-3
-62.9921E-3	-1.87486E-12	-63.3162E-3	-62.9921E-3	-11.1340E-3	39.9159E-12	-1.14872E+0	29.9612E-3
-74.8032E-3	-2.15911E-12	-75.1485E-3	-74.8032E-3	106.204E-3	40.1053E-12	-1.12519E+0	24.6360E-3
-86.6142E-3	-2.24312E-12	-87.0032E-3	-86.6142E-3	1.61825E-3	40.0172E-12	-1.14853E+0	24.5235E-3
-98.4252E-3	-2.36769E-12	-98.7818E-3	-98.4252E-3	-2.25709E-3	39.9905E-12	-1.13742E+0	28.4416E-3
-110.236E-3	-2.48865E-12	-110.647E-3	-110.236E-3	-64.7998E-3	40.0164E-12	-1.17192E+0	26.0133E-3
-122.047E-3	-2.61327E-12	-122.379E-3	-122.047E-3	-4.64196E-3	39.9904E-12	-1.18344E+0	24.1398E-3
-133.858E-3	-2.76562E-12	-134.234E-3	-133.858E-3	-36.3063E-3	40.0245E-12	-1.17818E+0	27.4636E-3
-145.669E-3	-2.88281E-12	-146.031E-3	-145.669E-3	-117.861E-3	39.9794E-12	-1.21678E+0	29.8667E-3
-157.480E-3	-3.05963E-12	-157.802E-3	-157.480E-3	-11.5605E-3	39.9990E-12	-1.21397E+0	28.0452E-3
-169.291E-3	-3.21312E-12	-169.683E-3	-169.291E-3	-4.99523E-3	39.9264E-12	-1.22185E+0	30.4190E-3
-181.102E-3	-3.36970E-12	-181.426E-3	-181.102E-3	11.7169E-3	40.0083E-12	-1.23758E+0	24.2274E-3
-192.913E-3	-3.51524E-12	-193.239E-3	-192.913E-3	59.2505E-3	40.0627E-12	-1.20381E+0	25.4724E-3
-204.724E-3	-3.63473E-12	-205.064E-3	-204.724E-3	-8.12900E-3	39.9992E-12	-1.22352E+0	25.7526E-3
-216.535E-3	-3.77382E-12	-216.863E-3	-216.535E-3	-48.4538E-3	39.9438E-12	-1.22135E+0	29.9634E-3
-228.346E-3	-3.89398E-12	-228.684E-3	-228.346E-3	-86.1946E-3	40.1056E-12	-1.26156E+0	26.2946E-3
-240.157E-3	-4.04273E-12	-240.489E-3	-240.157E-3	24.1654E-3	39.9630E-12	-1.26657E+0	27.6366E-3
-251.969E-3	-4.19582E-12	-252.312E-3	-251.969E-3	119.399E-3	40.0318E-12	-1.23996E+0	22.7666E-3
-263.780E-3	-4.35877E-12	-264.084E-3	-263.780E-3	129.547E-3	39.9616E-12	-1.23248E+0	25.8185E-3
-275.591E-3	-4.60181E-12	-275.892E-3	-275.591E-3	-16.3387E-3	40.0666E-12	-1.26102E+0	26.5340E-3
-287.402E-3	-4.77828E-12	-287.734E-3	-287.402E-3	-145.511E-3	40.0356E-12	-1.31307E+0	24.1136E-3
-299.213E-3	-4.89567E-12	-299.516E-3	-299.213E-3	-56.6784E-3	39.9110E-12	-1.31658E+0	29.4314E-3
-311.024E-3	-4.99004E-12	-311.346E-3	-311.024E-3	-7.68965E-3	39.9499E-12	-1.31119E+0	28.2294E-3
-322.835E-3	-5.18153E-12	-323.141E-3	-322.835E-3	-58.5881E-3	39.9632E-12	-1.34004E+0	27.3746E-3
-334.646E-3	-5.33364E-12	-334.912E-3	-334.646E-3	-85.4553E-3	40.0212E-12	-1.36402E+0	28.9049E-3
-346.457E-3	-5.44473E-12	-346.733E-3	-346.457E-3	-42.6620E-3	39.9809E-12	-1.38666E+0	28.3414E-3
-358.268E-3	-5.54577E-12	-358.568E-3	-358.268E-3	-105.908E-3	40.0176E-12	-1.42776E+0	25.2351E-3
-370.079E-3	-5.73911E-12	-370.359E-3	-370.079E-3	165.023E-3	40.0443E-12	-1.34613E+0	24.0873E-3
-381.890E-3	-5.74205E-12	-382.130E-3	-381.890E-3	-122.280E-3	39.9635E-12	-1.40749E+0	25.8735E-3
-393.701E-3	-5.88517E-12	-394.002E-3	-393.701E-3	-91.3642E-3	39.9584E-12	-1.43063E+0	28.2138E-3
-405.512E-3	-6.00851E-12	-405.808E-3	-405.512E-3	86.3737E-3	40.0286E-12	-1.37374E+0	27.4166E-3
-417.323E-3	-6.06748E-12	-417.614E-3	-417.323E-3	-44.6090E-3	39.9582E-12	-1.40587E+0	26.5944E-3
-429.134E-3	-6.35857E-12	-429.416E-3	-429.134E-3	-116.487E-3	39.9787E-12	-1.45123E+0	25.7981E-3
-440.945E-3	-6.48416E-12	-441.224E-3	-440.945E-3	-65.8315E-3	40.0116E-12	-1.46191E+0	27.0432E-3
-452.756E-3	-6.72327E-12	-453.034E-3	-452.756E-3	-16.5928E-3	40.0393E-12	-1.46522E+0	26.2990E-3
-464.567E-3	-6.89051E-12	-464.856E-3	-464.567E-3	-16.0277E-3	39.9661E-12	-1.47310E+0	28.5639E-3
-476.378E-3	-7.25958E-12	-476.686E-3	-476.378E-3	24.8142E-3	40.0298E-12	-1.47363E+0	26.3714E-3
-488.189E-3	-7.40032E-12	-488.415E-3	-488.189E-3	-6.00095E-3	40.0174E-12	-1.48450E+0	27.1682E-3
-500.000E-3	-7.85865E-12	-500.252E-3	-500.000E-3	-6.57145E-3	39.9855E-12	-1.51865E+0	27.1609E-3
