Experiment	bias spectroscopy	
Date	30.11.2015 20:17:30	
User		
X (m)	28.9009E-9	
Y (m)	-165.946E-9	
Z (m)	-3.75578E-9	
Z offset (m)	0E+0	
Settling time (s)	30E-3	
Integration time (s)	200E-3	
Z-Ctrl hold	TRUE	
Final Z (m)	-3.75578E-9	
Filter type	None	
Order		
Cutoff frq		
Current (A)	120.282E-12	
Z (m)	-3.75578E-9	
Phase (deg)	-166.626E-3	
Amplitude (m)	39.3548E-12	
Frequency Shift (Hz)	-577.102E-3	
Excitation (V)	42.8608E-3	

[DATA]
Bias calc (V)	Current (A)	Applied Voltage measured (V)	Bias (V)	Phase (deg)	Amplitude (m)	Frequency Shift (Hz)	Excitation (V)
1.00000E+0	121.753E-12	999.325E-3	1.00000E+0	-109.689E-3	40.1085E-12	-535.288E-3	21.9296E-3
988.189E-3	119.848E-12	987.520E-3	988.189E-3	-93.1328E-3	40.0465E-12	-580.786E-3	20.4965E-3
976.378E-3	118.685E-12	975.758E-3	976.378E-3	-63.9670E-3	40.0376E-12	-542.214E-3	21.1972E-3
964.567E-3	117.572E-12	963.891E-3	964.567E-3	-200.781E-3	40.0909E-12	-610.506E-3	17.3590E-3
952.756E-3	115.844E-12	952.141E-3	952.756E-3	-261.537E-3	40.0213E-12	-644.395E-3	19.8566E-3
940.945E-3	114.712E-12	940.303E-3	940.945E-3	213.404E-3	39.8819E-12	-559.168E-3	18.9649E-3
929.134E-3	113.905E-12	928.477E-3	929.134E-3	-20.1092E-3	40.0173E-12	-553.505E-3	18.0345E-3
917.323E-3	113.025E-12	916.726E-3	917.323E-3	-163.715E-3	39.9347E-12	-629.908E-3	18.2818E-3
905.512E-3	111.309E-12	904.871E-3	905.512E-3	326.959E-3	39.9976E-12	-448.429E-3	22.8961E-3
893.701E-3	111.233E-12	893.097E-3	893.701E-3	245.218E-3	40.0799E-12	-465.072E-3	22.1249E-3
881.890E-3	109.146E-12	881.265E-3	881.890E-3	182.176E-3	39.9412E-12	-485.641E-3	23.7036E-3
870.079E-3	108.100E-12	869.461E-3	870.079E-3	-26.1796E-3	39.9422E-12	-513.466E-3	22.9022E-3
858.268E-3	107.956E-12	857.628E-3	858.268E-3	-208.621E-3	40.1694E-12	-590.346E-3	19.9633E-3
846.457E-3	106.010E-12	845.797E-3	846.457E-3	-397.841E-3	40.0666E-12	-659.063E-3	17.5014E-3
834.646E-3	105.634E-12	834.030E-3	834.646E-3	-115.635E-3	40.1121E-12	-615.004E-3	17.2173E-3
822.835E-3	104.375E-12	822.216E-3	822.835E-3	27.0260E-3	40.0065E-12	-555.146E-3	21.2603E-3
811.024E-3	102.615E-12	810.394E-3	811.024E-3	191.876E-3	39.9192E-12	-483.238E-3	22.2987E-3
799.213E-3	102.669E-12	798.624E-3	799.213E-3	-95.7329E-3	40.1292E-12	-519.444E-3	20.0112E-3
787.402E-3	100.364E-12	786.789E-3	787.402E-3	-185.461E-3	39.8829E-12	-595.946E-3	21.9328E-3
775.591E-3	99.8159E-12	775.005E-3	775.591E-3	283.706E-3	40.0186E-12	-415.730E-3	22.5344E-3
763.780E-3	98.1917E-12	763.181E-3	763.780E-3	79.3530E-3	39.8368E-12	-484.940E-3	26.2204E-3
751.969E-3	97.5909E-12	751.400E-3	751.969E-3	41.2497E-3	39.8804E-12	-488.924E-3	25.0570E-3
740.157E-3	97.4456E-12	739.583E-3	740.157E-3	-16.2234E-3	40.0780E-12	-481.523E-3	20.4699E-3
728.346E-3	96.0195E-12	727.756E-3	728.346E-3	24.2995E-3	40.0790E-12	-505.815E-3	23.0549E-3
716.535E-3	95.3689E-12	715.965E-3	716.535E-3	-176.366E-3	40.0375E-12	-549.319E-3	24.2052E-3
704.724E-3	94.6285E-12	704.280E-3	704.724E-3	67.1218E-3	40.0737E-12	-505.420E-3	22.7908E-3
692.913E-3	92.8547E-12	692.482E-3	692.913E-3	108.417E-3	40.1053E-12	-480.820E-3	24.6091E-3
681.102E-3	91.5000E-12	680.703E-3	681.102E-3	161.163E-3	39.8951E-12	-438.399E-3	26.6683E-3
669.291E-3	90.2198E-12	668.886E-3	669.291E-3	-116.936E-3	39.9977E-12	-525.042E-3	19.4749E-3
657.480E-3	90.0610E-12	657.044E-3	657.480E-3	-146.105E-3	40.0424E-12	-553.174E-3	21.5629E-3
645.669E-3	88.6467E-12	645.237E-3	645.669E-3	215.723E-3	39.9610E-12	-435.002E-3	24.0257E-3
633.858E-3	87.7093E-12	633.442E-3	633.858E-3	-122.519E-3	40.1454E-12	-548.043E-3	22.7538E-3
622.047E-3	85.8878E-12	621.638E-3	622.047E-3	155.938E-3	39.9055E-12	-464.908E-3	23.1318E-3
610.236E-3	81.5837E-12	609.870E-3	610.236E-3	-193.625E-3	39.9234E-12	-584.423E-3	24.9912E-3
598.425E-3	80.6198E-12	598.059E-3	598.425E-3	58.3201E-3	40.0087E-12	-521.640E-3	22.0275E-3
586.614E-3	79.5718E-12	586.245E-3	586.614E-3	3.44419E-3	39.9468E-12	-540.040E-3	22.5750E-3
574.803E-3	78.5750E-12	574.422E-3	574.803E-3	8.74852E-3	39.9353E-12	-553.227E-3	24.7790E-3
562.992E-3	81.1790E-12	562.645E-3	562.992E-3	89.1385E-3	40.0577E-12	-497.715E-3	24.6373E-3
551.181E-3	78.8225E-12	550.829E-3	551.181E-3	89.1526E-3	39.8773E-12	-483.481E-3	25.0279E-3
539.370E-3	78.8989E-12	538.976E-3	539.370E-3	32.5055E-3	40.0922E-12	-495.348E-3	23.2086E-3
527.559E-3	77.9733E-12	527.188E-3	527.559E-3	-53.7686E-3	40.1535E-12	-522.437E-3	23.0531E-3
515.748E-3	75.9627E-12	515.355E-3	515.748E-3	-46.6176E-3	39.9235E-12	-557.971E-3	22.9166E-3
503.937E-3	75.0426E-12	503.563E-3	503.937E-3	-59.5776E-3	40.0443E-12	-571.286E-3	19.3015E-3
492.126E-3	73.3281E-12	491.737E-3	492.126E-3	11.0772E-3	39.9397E-12	-567.018E-3	23.3611E-3
480.315E-3	72.3216E-12	479.931E-3	480.315E-3	77.4516E-3	39.9933E-12	-506.411E-3	27.6710E-3
468.504E-3	71.6405E-12	468.133E-3	468.504E-3	-31.0077E-3	40.1312E-12	-561.604E-3	24.4244E-3
456.693E-3	69.5187E-12	456.324E-3	456.693E-3	11.2817E-3	39.9581E-12	-567.059E-3	21.5868E-3
444.882E-3	68.9838E-12	444.554E-3	444.882E-3	-144.142E-3	40.1258E-12	-601.759E-3	20.0085E-3
433.071E-3	66.9828E-12	432.723E-3	433.071E-3	60.1529E-3	39.9193E-12	-545.084E-3	25.5581E-3
421.260E-3	66.3289E-12	420.916E-3	421.260E-3	173.642E-3	40.0943E-12	-505.775E-3	21.6927E-3
409.449E-3	64.8904E-12	409.146E-3	409.449E-3	72.3404E-3	40.0050E-12	-541.138E-3	25.2124E-3
397.638E-3	63.7458E-12	397.296E-3	397.638E-3	-221.395E-3	40.0086E-12	-630.045E-3	23.8569E-3
385.827E-3	61.8167E-12	385.543E-3	385.827E-3	65.1839E-3	39.9904E-12	-578.653E-3	22.6924E-3
374.016E-3	60.8421E-12	373.691E-3	374.016E-3	-23.4985E-3	39.9784E-12	-583.527E-3	26.1341E-3
362.205E-3	59.1604E-12	361.891E-3	362.205E-3	126.870E-3	40.0045E-12	-532.538E-3	24.0988E-3
350.394E-3	57.9853E-12	350.134E-3	350.394E-3	-195.747E-3	40.1421E-12	-626.082E-3	20.8983E-3
338.583E-3	56.0779E-12	338.282E-3	338.583E-3	-173.104E-3	39.9428E-12	-658.754E-3	22.8671E-3
326.772E-3	54.9344E-12	326.497E-3	326.772E-3	119.171E-3	40.0286E-12	-577.731E-3	25.2834E-3
314.961E-3	53.3540E-12	314.663E-3	314.961E-3	-303.904E-3	39.9853E-12	-729.743E-3	24.9020E-3
303.150E-3	51.4495E-12	302.837E-3	303.150E-3	138.725E-3	40.0114E-12	-585.847E-3	24.2349E-3
291.339E-3	49.7724E-12	291.085E-3	291.339E-3	138.895E-3	39.9408E-12	-552.543E-3	30.6310E-3
279.528E-3	48.4972E-12	279.262E-3	279.528E-3	-28.3732E-3	40.0353E-12	-598.895E-3	27.2929E-3
267.717E-3	47.0221E-12	267.452E-3	267.717E-3	20.4222E-3	40.0074E-12	-579.873E-3	25.0669E-3
255.906E-3	44.9361E-12	255.622E-3	255.906E-3	71.5550E-3	39.9820E-12	-575.622E-3	28.8972E-3
244.094E-3	43.2102E-12	243.837E-3	244.094E-3	-76.0816E-3	40.0420E-12	-649.582E-3	22.7404E-3
232.283E-3	41.1053E-12	231.992E-3	232.283E-3	-83.5574E-3	39.9661E-12	-679.937E-3	27.1431E-3
220.472E-3	39.8718E-12	220.155E-3	220.472E-3	33.8562E-3	40.0573E-12	-650.453E-3	24.4767E-3
208.661E-3	37.6121E-12	208.377E-3	208.661E-3	-99.4292E-3	40.0365E-12	-717.477E-3	26.7843E-3
196.850E-3	35.7633E-12	196.552E-3	196.850E-3	80.1308E-3	40.0512E-12	-661.805E-3	24.9508E-3
185.039E-3	33.5067E-12	184.791E-3	185.039E-3	-23.5682E-3	39.9162E-12	-696.320E-3	25.2458E-3
173.228E-3	31.7200E-12	172.982E-3	173.228E-3	-7.44971E-3	40.0436E-12	-708.652E-3	25.6282E-3
161.417E-3	29.4683E-12	161.144E-3	161.417E-3	1.16703E-3	39.9830E-12	-705.365E-3	28.1277E-3
149.606E-3	26.5626E-12	149.327E-3	149.606E-3	104.271E-3	39.9694E-12	-697.161E-3	25.7048E-3
137.795E-3	24.8475E-12	137.542E-3	137.795E-3	-32.7306E-3	39.9572E-12	-720.723E-3	22.4995E-3
125.984E-3	22.5622E-12	125.777E-3	125.984E-3	-19.9916E-3	39.9947E-12	-728.562E-3	26.4298E-3
114.173E-3	20.5597E-12	113.940E-3	114.173E-3	41.1666E-3	40.0525E-12	-723.176E-3	24.3942E-3
102.362E-3	17.9156E-12	102.129E-3	102.362E-3	10.1157E-3	39.9521E-12	-742.111E-3	28.9137E-3
90.5512E-3	15.8029E-12	90.3253E-3	90.5512E-3	-1.06290E-3	39.9804E-12	-772.343E-3	28.6443E-3
78.7402E-3	13.6001E-12	78.4853E-3	78.7402E-3	-14.3712E-3	40.0258E-12	-768.624E-3	25.5054E-3
66.9291E-3	11.3731E-12	66.6193E-3	66.9291E-3	58.0604E-3	39.9726E-12	-759.988E-3	27.1255E-3
55.1181E-3	9.60551E-12	54.8330E-3	55.1181E-3	189.949E-3	40.0830E-12	-717.754E-3	26.1405E-3
43.3071E-3	7.53961E-12	43.0250E-3	43.3071E-3	-114.892E-3	40.0352E-12	-829.892E-3	25.3508E-3
31.4961E-3	5.43681E-12	31.1970E-3	31.4961E-3	-23.6371E-3	39.9803E-12	-830.618E-3	29.2040E-3
19.6850E-3	3.47145E-12	19.4027E-3	19.6850E-3	37.5816E-3	40.0281E-12	-818.500E-3	29.7412E-3
7.87402E-3	1.33385E-12	7.53547E-3	7.87402E-3	-584.837E-6	39.9803E-12	-848.142E-3	29.0832E-3
-3.93701E-3	-622.633E-15	-4.35350E-3	-3.93701E-3	-10.6256E-3	39.9830E-12	-854.073E-3	27.2307E-3
-15.7480E-3	-2.72472E-12	-16.1340E-3	-15.7480E-3	-109.844E-3	40.0014E-12	-900.399E-3	26.3062E-3
-27.5591E-3	-4.90720E-12	-27.9442E-3	-27.5591E-3	80.3122E-3	39.9851E-12	-871.607E-3	25.7989E-3
-39.3701E-3	-7.01257E-12	-39.7094E-3	-39.3701E-3	-167.569E-3	40.0714E-12	-957.944E-3	22.3604E-3
-51.1811E-3	-8.80385E-12	-51.5613E-3	-51.1811E-3	141.494E-3	39.9934E-12	-877.377E-3	27.5112E-3
-62.9921E-3	-10.3685E-12	-63.3336E-3	-62.9921E-3	-27.2056E-3	39.9838E-12	-923.475E-3	30.1335E-3
-74.8032E-3	-11.5499E-12	-75.1752E-3	-74.8032E-3	4.04885E-3	40.0434E-12	-901.269E-3	24.1681E-3
-86.6142E-3	-12.3373E-12	-87.0313E-3	-86.6142E-3	-54.0020E-3	39.9409E-12	-963.320E-3	29.2679E-3
-98.4252E-3	-13.3124E-12	-98.8062E-3	-98.4252E-3	90.4839E-3	40.0213E-12	-907.409E-3	26.7270E-3
-110.236E-3	-14.3843E-12	-110.665E-3	-110.236E-3	-84.7950E-3	40.0815E-12	-965.985E-3	24.9578E-3
-122.047E-3	-14.9279E-12	-122.409E-3	-122.047E-3	-26.7648E-3	39.9832E-12	-968.147E-3	26.4899E-3
-133.858E-3	-15.7369E-12	-134.267E-3	-133.858E-3	132.088E-3	39.9681E-12	-904.842E-3	29.9282E-3
-145.669E-3	-16.6707E-12	-146.062E-3	-145.669E-3	-18.2787E-3	39.9886E-12	-936.668E-3	28.9918E-3
-157.480E-3	-17.2985E-12	-157.845E-3	-157.480E-3	-145.991E-3	39.9700E-12	-1.00379E+0	26.1160E-3
-169.291E-3	-18.2126E-12	-169.714E-3	-169.291E-3	178.296E-3	40.0249E-12	-909.005E-3	25.0383E-3
-181.102E-3	-19.1405E-12	-181.446E-3	-181.102E-3	-221.499E-3	39.9916E-12	-1.01464E+0	27.3551E-3
-192.913E-3	-19.9222E-12	-193.255E-3	-192.913E-3	-80.6001E-3	40.0233E-12	-1.02788E+0	26.2641E-3
-204.724E-3	-20.9759E-12	-205.085E-3	-204.724E-3	34.4117E-3	40.0203E-12	-987.789E-3	26.0077E-3
-216.535E-3	-21.8651E-12	-216.887E-3	-216.535E-3	-120.572E-3	39.9983E-12	-1.04942E+0	27.8672E-3
-228.346E-3	-23.2217E-12	-228.707E-3	-228.346E-3	-675.227E-6	39.9932E-12	-1.02000E+0	28.0178E-3
-240.157E-3	-23.7100E-12	-240.505E-3	-240.157E-3	-159.245E-3	39.9563E-12	-1.10900E+0	28.5791E-3
-251.969E-3	-24.6963E-12	-252.327E-3	-251.969E-3	41.6135E-3	40.0383E-12	-1.07786E+0	28.0731E-3
-263.780E-3	-26.0618E-12	-264.084E-3	-263.780E-3	-131.242E-3	40.0105E-12	-1.11617E+0	26.7774E-3
-275.591E-3	-27.0406E-12	-275.891E-3	-275.591E-3	149.080E-3	40.0340E-12	-1.05261E+0	28.1783E-3
-287.402E-3	-27.9869E-12	-287.729E-3	-287.402E-3	32.8200E-3	39.9867E-12	-1.09172E+0	25.6554E-3
-299.213E-3	-28.5771E-12	-299.529E-3	-299.213E-3	-34.5036E-3	40.0212E-12	-1.11866E+0	27.8399E-3
-311.024E-3	-29.8796E-12	-311.362E-3	-311.024E-3	-7.01747E-3	40.0581E-12	-1.12058E+0	25.8006E-3
-322.835E-3	-31.1304E-12	-323.153E-3	-322.835E-3	-106.491E-3	40.0194E-12	-1.16711E+0	27.8734E-3
-334.646E-3	-31.9660E-12	-334.929E-3	-334.646E-3	43.0964E-3	40.0187E-12	-1.13517E+0	27.2469E-3
-346.457E-3	-33.1825E-12	-346.746E-3	-346.457E-3	219.766E-3	40.1004E-12	-1.07270E+0	23.6842E-3
-358.268E-3	-33.9244E-12	-358.590E-3	-358.268E-3	-161.468E-3	39.9704E-12	-1.20619E+0	28.3778E-3
-370.079E-3	-35.1944E-12	-370.394E-3	-370.079E-3	-72.3376E-3	40.0144E-12	-1.21678E+0	28.9077E-3
-381.890E-3	-36.2007E-12	-382.161E-3	-381.890E-3	17.4572E-3	39.9980E-12	-1.19549E+0	25.8499E-3
-393.701E-3	-36.9564E-12	-394.028E-3	-393.701E-3	-41.4746E-3	39.9562E-12	-1.20719E+0	30.3261E-3
-405.512E-3	-37.9183E-12	-405.827E-3	-405.512E-3	-109.342E-3	40.0154E-12	-1.25597E+0	29.5575E-3
-417.323E-3	-38.6583E-12	-417.629E-3	-417.323E-3	73.0922E-3	39.9886E-12	-1.20121E+0	27.3909E-3
-429.134E-3	-39.3851E-12	-429.439E-3	-429.134E-3	-87.7104E-3	39.9300E-12	-1.25691E+0	30.2883E-3
-440.945E-3	-40.4916E-12	-441.241E-3	-440.945E-3	-35.7350E-3	40.0283E-12	-1.27343E+0	27.8462E-3
-452.756E-3	-41.3373E-12	-453.051E-3	-452.756E-3	-136.245E-3	39.9528E-12	-1.29142E+0	27.9931E-3
-464.567E-3	-41.7116E-12	-464.873E-3	-464.567E-3	-100.409E-3	39.9772E-12	-1.30612E+0	28.3799E-3
-476.378E-3	-42.4513E-12	-476.701E-3	-476.378E-3	-35.8072E-3	40.0376E-12	-1.32151E+0	27.3051E-3
-488.189E-3	-43.4244E-12	-488.439E-3	-488.189E-3	-93.5137E-3	39.9770E-12	-1.34435E+0	28.7614E-3
-500.000E-3	-43.7856E-12	-500.276E-3	-500.000E-3	-5.49131E-3	40.0018E-12	-1.35599E+0	30.4694E-3
