Experiment	bias spectroscopy	
Date	01.12.2015 06:03:36	
User		
X (m)	281.347E-9	
Y (m)	-138.338E-9	
Z (m)	-4.07703E-9	
Z offset (m)	0E+0	
Settling time (s)	30E-3	
Integration time (s)	200E-3	
Z-Ctrl hold	TRUE	
Final Z (m)	-4.07703E-9	
Filter type	None	
Order		
Cutoff frq		
Current (A)	16.3186E-12	
Z (m)	-4.07703E-9	
Phase (deg)	-183.424E-3	
Amplitude (m)	40.2125E-12	
Frequency Shift (Hz)	-1.10798E+0	
Excitation (V)	6.76083E-3	

[DATA]
Bias calc (V)	Current (A)	Applied Voltage measured (V)	Bias (V)	Phase (deg)	Amplitude (m)	Frequency Shift (Hz)	Excitation (V)
1.00000E+0	15.8766E-12	999.338E-3	1.00000E+0	182.933E-3	40.0533E-12	-1.03711E+0	25.0558E-3
988.189E-3	15.8743E-12	987.539E-3	988.189E-3	115.771E-3	40.0686E-12	-1.03981E+0	24.5855E-3
976.378E-3	15.3453E-12	975.774E-3	976.378E-3	-35.6963E-3	40.0114E-12	-1.08242E+0	26.6412E-3
964.567E-3	15.2638E-12	963.918E-3	964.567E-3	210.437E-3	39.9441E-12	-982.309E-3	28.1345E-3
952.756E-3	15.3562E-12	952.163E-3	952.756E-3	-119.860E-3	40.0493E-12	-1.08443E+0	24.3298E-3
940.945E-3	15.0311E-12	940.324E-3	940.945E-3	4.78325E-3	39.9874E-12	-1.03516E+0	24.5948E-3
929.134E-3	14.8991E-12	928.503E-3	929.134E-3	-61.1094E-3	40.0172E-12	-1.05187E+0	27.4526E-3
917.323E-3	15.0382E-12	916.758E-3	917.323E-3	-134.051E-3	40.0482E-12	-1.09234E+0	21.8854E-3
905.512E-3	14.6561E-12	904.902E-3	905.512E-3	9.80493E-3	39.9703E-12	-1.04785E+0	25.6323E-3
893.701E-3	14.4838E-12	893.142E-3	893.701E-3	136.221E-3	40.0324E-12	-990.509E-3	25.4509E-3
881.890E-3	14.2977E-12	881.284E-3	881.890E-3	7.15683E-3	40.0355E-12	-1.02726E+0	23.6603E-3
870.079E-3	14.2511E-12	869.490E-3	870.079E-3	32.9881E-3	39.9979E-12	-1.00547E+0	24.9654E-3
858.268E-3	14.1336E-12	857.667E-3	858.268E-3	-86.4507E-3	39.9205E-12	-1.04916E+0	28.8142E-3
846.457E-3	13.9805E-12	845.835E-3	846.457E-3	51.4387E-3	40.0633E-12	-1.02596E+0	23.6263E-3
834.646E-3	13.6229E-12	834.052E-3	834.646E-3	27.6196E-3	39.9898E-12	-1.03193E+0	26.9376E-3
822.835E-3	13.6979E-12	822.242E-3	822.835E-3	207.485E-3	40.0345E-12	-934.592E-3	23.2145E-3
811.024E-3	13.4825E-12	810.423E-3	811.024E-3	-65.9581E-3	39.9387E-12	-1.02543E+0	27.2319E-3
799.213E-3	13.4112E-12	798.655E-3	799.213E-3	4.68688E-3	39.9915E-12	-1.03518E+0	26.3863E-3
787.402E-3	13.2660E-12	786.828E-3	787.402E-3	129.298E-3	40.0009E-12	-970.185E-3	25.0867E-3
775.591E-3	13.1402E-12	775.034E-3	775.591E-3	26.8206E-3	40.0790E-12	-975.867E-3	22.1753E-3
763.780E-3	12.9175E-12	763.211E-3	763.780E-3	-87.5283E-3	39.9520E-12	-1.00287E+0	29.0750E-3
751.969E-3	12.8755E-12	751.432E-3	751.969E-3	37.0213E-3	40.0207E-12	-960.765E-3	24.3957E-3
740.157E-3	12.7142E-12	739.633E-3	740.157E-3	-134.804E-3	40.0166E-12	-1.01169E+0	25.7147E-3
728.346E-3	12.7042E-12	727.779E-3	728.346E-3	148.278E-3	39.9783E-12	-929.321E-3	26.9672E-3
716.535E-3	12.3782E-12	716.001E-3	716.535E-3	18.6492E-3	39.9687E-12	-954.766E-3	23.9089E-3
704.724E-3	12.1850E-12	704.314E-3	704.724E-3	106.322E-3	39.9874E-12	-920.189E-3	26.9076E-3
692.913E-3	12.1482E-12	692.520E-3	692.913E-3	-7.55268E-3	40.0309E-12	-963.584E-3	24.9896E-3
681.102E-3	11.9199E-12	680.744E-3	681.102E-3	-157.207E-3	39.9969E-12	-999.006E-3	26.4734E-3
669.291E-3	11.7876E-12	668.927E-3	669.291E-3	123.249E-3	40.0042E-12	-935.282E-3	28.8486E-3
657.480E-3	11.8336E-12	657.091E-3	657.480E-3	84.5824E-3	40.0461E-12	-912.907E-3	26.8074E-3
645.669E-3	11.4397E-12	645.279E-3	645.669E-3	16.8644E-3	39.9895E-12	-944.880E-3	25.8335E-3
633.858E-3	11.1931E-12	633.472E-3	633.858E-3	-7.89074E-3	39.9953E-12	-950.150E-3	25.7553E-3
622.047E-3	11.4208E-12	621.668E-3	622.047E-3	30.3702E-3	40.0693E-12	-940.749E-3	24.0845E-3
610.236E-3	11.1932E-12	609.892E-3	610.236E-3	-57.6634E-3	40.0001E-12	-945.827E-3	27.5405E-3
598.425E-3	11.1124E-12	598.094E-3	598.425E-3	110.090E-3	40.0235E-12	-894.270E-3	24.7221E-3
586.614E-3	10.8202E-12	586.283E-3	586.614E-3	47.5001E-3	39.9567E-12	-910.451E-3	27.5711E-3
574.803E-3	10.7072E-12	574.461E-3	574.803E-3	-95.1724E-3	40.0396E-12	-942.094E-3	22.9952E-3
562.992E-3	10.4360E-12	562.691E-3	562.992E-3	-36.8531E-3	39.9670E-12	-937.334E-3	26.8026E-3
551.181E-3	10.4716E-12	550.868E-3	551.181E-3	51.5159E-3	40.0210E-12	-916.805E-3	24.8604E-3
539.370E-3	10.1382E-12	539.004E-3	539.370E-3	-166.931E-3	39.9451E-12	-991.763E-3	28.8079E-3
527.559E-3	10.1686E-12	527.227E-3	527.559E-3	63.0846E-3	40.0510E-12	-936.441E-3	24.2358E-3
515.748E-3	9.89578E-12	515.391E-3	515.748E-3	68.1146E-3	39.9913E-12	-913.585E-3	26.9382E-3
503.937E-3	9.56165E-12	503.600E-3	503.937E-3	-87.8328E-3	40.0078E-12	-952.020E-3	25.5527E-3
492.126E-3	9.48538E-12	491.783E-3	492.126E-3	58.5690E-3	39.9690E-12	-919.851E-3	29.5150E-3
480.315E-3	9.31402E-12	479.971E-3	480.315E-3	-3.26307E-3	40.0401E-12	-926.329E-3	24.1343E-3
468.504E-3	9.09041E-12	468.172E-3	468.504E-3	-68.0350E-3	39.9451E-12	-958.774E-3	26.4093E-3
456.693E-3	8.89580E-12	456.357E-3	456.693E-3	-120.037E-3	40.0114E-12	-996.056E-3	27.1937E-3
444.882E-3	8.86882E-12	444.593E-3	444.882E-3	174.959E-3	40.0356E-12	-864.455E-3	24.8264E-3
433.071E-3	8.55911E-12	432.758E-3	433.071E-3	-110.801E-3	39.9601E-12	-957.949E-3	26.3021E-3
421.260E-3	8.47149E-12	420.942E-3	421.260E-3	33.7233E-3	40.0161E-12	-900.442E-3	24.2044E-3
409.449E-3	8.35749E-12	409.168E-3	409.449E-3	-135.592E-3	40.0713E-12	-977.912E-3	23.7543E-3
397.638E-3	8.03329E-12	397.325E-3	397.638E-3	-14.8623E-3	39.9694E-12	-947.746E-3	24.6776E-3
385.827E-3	7.75985E-12	385.562E-3	385.827E-3	-89.9917E-3	39.9637E-12	-967.411E-3	26.5319E-3
374.016E-3	7.73212E-12	373.722E-3	374.016E-3	-56.6240E-3	40.0100E-12	-954.064E-3	26.1187E-3
362.205E-3	7.53968E-12	361.930E-3	362.205E-3	29.4637E-3	40.0143E-12	-946.555E-3	24.5591E-3
350.394E-3	7.29759E-12	350.184E-3	350.394E-3	18.0188E-3	40.0656E-12	-933.336E-3	23.4933E-3
338.583E-3	7.12770E-12	338.316E-3	338.583E-3	156.368E-3	40.0842E-12	-895.360E-3	20.8838E-3
326.772E-3	6.97643E-12	326.539E-3	326.772E-3	-211.484E-3	39.9792E-12	-1.01997E+0	25.3584E-3
314.961E-3	6.73224E-12	314.701E-3	314.961E-3	217.098E-3	40.0336E-12	-887.306E-3	25.4244E-3
303.150E-3	6.48817E-12	302.876E-3	303.150E-3	34.4820E-3	39.9802E-12	-942.774E-3	25.0045E-3
291.339E-3	6.37260E-12	291.126E-3	291.339E-3	-40.7938E-3	40.0564E-12	-960.745E-3	21.9339E-3
279.528E-3	6.18988E-12	279.298E-3	279.528E-3	-136.291E-3	40.0437E-12	-1.00297E+0	24.3311E-3
267.717E-3	5.88289E-12	267.479E-3	267.717E-3	96.1599E-3	39.9412E-12	-931.961E-3	23.9855E-3
255.906E-3	5.70966E-12	255.668E-3	255.906E-3	56.4332E-3	40.0403E-12	-924.522E-3	25.9853E-3
244.094E-3	5.51912E-12	243.891E-3	244.094E-3	-124.453E-3	40.0225E-12	-990.792E-3	24.3665E-3
232.283E-3	5.27601E-12	232.033E-3	232.283E-3	-94.8309E-3	40.0366E-12	-997.465E-3	23.5862E-3
220.472E-3	5.03152E-12	220.204E-3	220.472E-3	12.1727E-3	39.9571E-12	-982.889E-3	26.1810E-3
208.661E-3	4.86901E-12	208.425E-3	208.661E-3	131.059E-3	39.9796E-12	-912.044E-3	27.2285E-3
196.850E-3	4.68907E-12	196.587E-3	196.850E-3	-34.5780E-3	40.0741E-12	-996.568E-3	23.8621E-3
185.039E-3	4.30576E-12	184.829E-3	185.039E-3	41.6948E-3	39.9907E-12	-976.674E-3	24.8535E-3
173.228E-3	4.06063E-12	173.009E-3	173.228E-3	13.1936E-3	39.9328E-12	-1.00930E+0	28.7890E-3
161.417E-3	3.79052E-12	161.170E-3	161.417E-3	-73.6727E-3	40.0690E-12	-1.03194E+0	24.9620E-3
149.606E-3	3.53794E-12	149.351E-3	149.606E-3	139.352E-3	40.0259E-12	-962.858E-3	24.9446E-3
137.795E-3	3.29695E-12	137.561E-3	137.795E-3	46.1615E-3	39.9755E-12	-965.122E-3	24.8219E-3
125.984E-3	2.96426E-12	125.791E-3	125.984E-3	-118.930E-3	39.9936E-12	-1.02338E+0	27.2588E-3
114.173E-3	2.69816E-12	113.958E-3	114.173E-3	-126.533E-3	39.9186E-12	-1.05239E+0	26.0165E-3
102.362E-3	2.41517E-12	102.158E-3	102.362E-3	6.76636E-3	40.0002E-12	-1.04080E+0	25.4699E-3
90.5512E-3	2.15232E-12	90.3452E-3	90.5512E-3	-81.8552E-3	39.9068E-12	-1.08066E+0	27.8520E-3
78.7402E-3	1.83989E-12	78.5132E-3	78.7402E-3	19.5240E-3	39.9986E-12	-1.03271E+0	25.6662E-3
66.9291E-3	1.55794E-12	66.6425E-3	66.9291E-3	31.1771E-3	39.9545E-12	-1.02672E+0	27.6819E-3
55.1181E-3	1.27044E-12	54.8716E-3	55.1181E-3	-80.7217E-3	39.9649E-12	-1.04447E+0	29.0740E-3
43.3071E-3	975.815E-15	43.0475E-3	43.3071E-3	-46.6525E-3	40.0550E-12	-1.04960E+0	23.5836E-3
31.4961E-3	675.079E-15	31.2202E-3	31.4961E-3	40.9304E-3	39.9208E-12	-1.03095E+0	27.1697E-3
19.6850E-3	379.864E-15	19.4212E-3	19.6850E-3	-15.6174E-3	39.9800E-12	-1.07434E+0	27.9498E-3
7.87402E-3	78.6199E-15	7.56073E-3	7.87402E-3	3.59686E-3	40.0435E-12	-1.08604E+0	25.1847E-3
-3.93701E-3	-215.614E-15	-4.32341E-3	-3.93701E-3	34.2082E-3	39.9828E-12	-1.07282E+0	25.0293E-3
-15.7480E-3	-535.410E-15	-16.1109E-3	-15.7480E-3	-53.3856E-3	39.9994E-12	-1.09847E+0	28.0042E-3
-27.5591E-3	-834.136E-15	-27.9179E-3	-27.5591E-3	-152.877E-3	39.9905E-12	-1.13491E+0	28.0122E-3
-39.3701E-3	-1.12017E-12	-39.6816E-3	-39.3701E-3	15.2984E-3	39.9400E-12	-1.09072E+0	29.0241E-3
-51.1811E-3	-1.43081E-12	-51.5465E-3	-51.1811E-3	-167.791E-3	39.9388E-12	-1.16156E+0	29.4545E-3
-62.9921E-3	-1.72101E-12	-63.3131E-3	-62.9921E-3	1.65203E-3	39.9833E-12	-1.13313E+0	27.0591E-3
-74.8032E-3	-1.93360E-12	-75.1535E-3	-74.8032E-3	-97.9957E-3	39.9612E-12	-1.16533E+0	27.6364E-3
-86.6142E-3	-2.06438E-12	-87.0110E-3	-86.6142E-3	49.1060E-3	40.0039E-12	-1.11866E+0	25.3707E-3
-98.4252E-3	-2.20569E-12	-98.7857E-3	-98.4252E-3	-229.234E-3	40.0233E-12	-1.22060E+0	25.1634E-3
-110.236E-3	-2.31323E-12	-110.634E-3	-110.236E-3	-7.79531E-3	39.9405E-12	-1.18530E+0	26.2092E-3
-122.047E-3	-2.47130E-12	-122.380E-3	-122.047E-3	-99.5597E-3	40.0312E-12	-1.21949E+0	26.8093E-3
-133.858E-3	-2.59781E-12	-134.233E-3	-133.858E-3	112.443E-3	39.9999E-12	-1.14199E+0	26.0673E-3
-145.669E-3	-2.79861E-12	-146.034E-3	-145.669E-3	31.0789E-3	40.0073E-12	-1.17640E+0	26.5891E-3
-157.480E-3	-2.90018E-12	-157.808E-3	-157.480E-3	-100.199E-3	39.9779E-12	-1.22303E+0	26.3623E-3
-169.291E-3	-3.10507E-12	-169.670E-3	-169.291E-3	-53.8571E-3	40.0090E-12	-1.22653E+0	24.5246E-3
-181.102E-3	-3.23558E-12	-181.417E-3	-181.102E-3	15.8625E-3	40.1114E-12	-1.19695E+0	23.8724E-3
-192.913E-3	-3.33316E-12	-193.231E-3	-192.913E-3	24.9437E-3	39.9637E-12	-1.17000E+0	26.2379E-3
-204.724E-3	-3.48356E-12	-205.049E-3	-204.724E-3	-117.813E-3	39.9837E-12	-1.26372E+0	27.9372E-3
-216.535E-3	-3.58184E-12	-216.852E-3	-216.535E-3	12.3098E-3	39.9711E-12	-1.22316E+0	28.0590E-3
-228.346E-3	-3.73319E-12	-228.677E-3	-228.346E-3	89.3041E-3	39.9748E-12	-1.19782E+0	26.4748E-3
-240.157E-3	-3.88488E-12	-240.473E-3	-240.157E-3	-31.6368E-3	40.0890E-12	-1.23450E+0	22.9597E-3
-251.969E-3	-3.98819E-12	-252.295E-3	-251.969E-3	-130.172E-3	39.8846E-12	-1.28235E+0	31.5759E-3
-263.780E-3	-4.16773E-12	-264.072E-3	-263.780E-3	47.9891E-3	39.9992E-12	-1.24230E+0	26.7682E-3
-275.591E-3	-4.28865E-12	-275.873E-3	-275.591E-3	-18.0012E-3	39.9340E-12	-1.27580E+0	28.2227E-3
-287.402E-3	-4.47029E-12	-287.709E-3	-287.402E-3	-59.2225E-3	39.9863E-12	-1.28141E+0	25.8140E-3
-299.213E-3	-4.65653E-12	-299.504E-3	-299.213E-3	-157.156E-3	40.0464E-12	-1.34369E+0	27.1316E-3
-311.024E-3	-4.78752E-12	-311.324E-3	-311.024E-3	14.6894E-3	40.0303E-12	-1.29993E+0	23.2691E-3
-322.835E-3	-4.88823E-12	-323.114E-3	-322.835E-3	-42.8371E-3	39.9890E-12	-1.31811E+0	24.7447E-3
-334.646E-3	-4.95774E-12	-334.895E-3	-334.646E-3	102.453E-3	39.9888E-12	-1.28703E+0	25.8431E-3
-346.457E-3	-5.13310E-12	-346.712E-3	-346.457E-3	-52.0348E-3	39.9965E-12	-1.35167E+0	26.6250E-3
-358.268E-3	-5.27817E-12	-358.557E-3	-358.268E-3	-17.7424E-3	40.0145E-12	-1.36379E+0	24.7632E-3
-370.079E-3	-5.37179E-12	-370.360E-3	-370.079E-3	-22.0342E-3	39.9548E-12	-1.36949E+0	28.5119E-3
-381.890E-3	-5.50524E-12	-382.123E-3	-381.890E-3	69.0263E-3	39.9960E-12	-1.34740E+0	25.8512E-3
-393.701E-3	-5.69786E-12	-393.991E-3	-393.701E-3	-169.506E-3	40.0999E-12	-1.43758E+0	22.0666E-3
-405.512E-3	-5.78195E-12	-405.802E-3	-405.512E-3	-44.4333E-3	39.9494E-12	-1.43762E+0	30.2191E-3
-417.323E-3	-5.90462E-12	-417.606E-3	-417.323E-3	75.4637E-3	39.9679E-12	-1.40021E+0	27.0168E-3
-429.134E-3	-6.06326E-12	-429.415E-3	-429.134E-3	-40.3740E-3	39.9643E-12	-1.44121E+0	28.0582E-3
-440.945E-3	-6.21408E-12	-441.215E-3	-440.945E-3	8.42387E-3	40.0267E-12	-1.44060E+0	24.7483E-3
-452.756E-3	-6.40813E-12	-453.015E-3	-452.756E-3	-81.2144E-3	40.0142E-12	-1.47851E+0	28.2154E-3
-464.567E-3	-6.70686E-12	-464.844E-3	-464.567E-3	-20.7178E-3	40.0386E-12	-1.46804E+0	26.0130E-3
-476.378E-3	-6.90492E-12	-476.684E-3	-476.378E-3	-78.0705E-3	40.0228E-12	-1.49700E+0	25.5973E-3
-488.189E-3	-7.20719E-12	-488.418E-3	-488.189E-3	-57.1539E-3	40.0230E-12	-1.48282E+0	24.7880E-3
-500.000E-3	-7.57350E-12	-500.250E-3	-500.000E-3	-50.6088E-3	40.0263E-12	-1.51771E+0	26.4961E-3
