Experiment	bias spectroscopy	
Date	01.12.2015 04:10:36	
User		
X (m)	281.651E-9	
Y (m)	-139.399E-9	
Z (m)	-4.07703E-9	
Z offset (m)	0E+0	
Settling time (s)	30E-3	
Integration time (s)	200E-3	
Z-Ctrl hold	TRUE	
Final Z (m)	-4.07703E-9	
Filter type	None	
Order		
Cutoff frq		
Current (A)	14.9829E-12	
Z (m)	-4.07703E-9	
Phase (deg)	160.585E-3	
Amplitude (m)	39.9216E-12	
Frequency Shift (Hz)	-1.00585E+0	
Excitation (V)	33.287E-3	

[DATA]
Bias calc (V)	Current (A)	Applied Voltage measured (V)	Bias (V)	Phase (deg)	Amplitude (m)	Frequency Shift (Hz)	Excitation (V)
1.00000E+0	14.8019E-12	999.346E-3	1.00000E+0	33.3371E-3	40.0337E-12	-1.05185E+0	23.1517E-3
988.189E-3	14.9565E-12	987.537E-3	988.189E-3	-102.361E-3	39.9903E-12	-1.10239E+0	26.6608E-3
976.378E-3	14.6189E-12	975.783E-3	976.378E-3	-5.30222E-3	40.0343E-12	-1.08466E+0	23.9858E-3
964.567E-3	14.3556E-12	963.916E-3	964.567E-3	81.5247E-3	39.9721E-12	-1.05838E+0	25.2870E-3
952.756E-3	14.3294E-12	952.161E-3	952.756E-3	131.015E-3	39.9947E-12	-1.03876E+0	26.9992E-3
940.945E-3	14.2009E-12	940.324E-3	940.945E-3	47.2362E-3	39.9527E-12	-1.04015E+0	24.9813E-3
929.134E-3	14.1015E-12	928.500E-3	929.134E-3	-15.3396E-3	40.0640E-12	-1.03827E+0	26.6956E-3
917.323E-3	13.9228E-12	916.748E-3	917.323E-3	-13.5400E-3	40.0272E-12	-1.06829E+0	25.0576E-3
905.512E-3	13.8897E-12	904.898E-3	905.512E-3	-63.0638E-3	39.9643E-12	-1.07587E+0	26.4146E-3
893.701E-3	13.6231E-12	893.140E-3	893.701E-3	104.219E-3	40.0652E-12	-990.824E-3	24.7331E-3
881.890E-3	13.6509E-12	881.304E-3	881.890E-3	-89.5704E-3	40.0212E-12	-1.03295E+0	24.2194E-3
870.079E-3	13.6395E-12	869.488E-3	870.079E-3	68.3920E-3	39.9780E-12	-984.614E-3	27.5614E-3
858.268E-3	13.1679E-12	857.672E-3	858.268E-3	31.1156E-3	39.9878E-12	-994.448E-3	27.0204E-3
846.457E-3	13.1934E-12	845.835E-3	846.457E-3	60.1557E-3	39.9461E-12	-983.248E-3	28.2164E-3
834.646E-3	13.1093E-12	834.056E-3	834.646E-3	-129.880E-3	40.0453E-12	-1.04946E+0	25.0101E-3
822.835E-3	12.9153E-12	822.242E-3	822.835E-3	75.1176E-3	39.9798E-12	-991.441E-3	26.0131E-3
811.024E-3	12.8562E-12	810.413E-3	811.024E-3	217.179E-3	40.0195E-12	-929.564E-3	27.6951E-3
799.213E-3	12.7113E-12	798.643E-3	799.213E-3	135.699E-3	39.9749E-12	-924.623E-3	29.6971E-3
787.402E-3	12.5498E-12	786.813E-3	787.402E-3	-185.415E-3	40.0566E-12	-1.05009E+0	25.6488E-3
775.591E-3	12.5002E-12	775.027E-3	775.591E-3	122.592E-3	40.0270E-12	-944.444E-3	22.8867E-3
763.780E-3	12.2020E-12	763.202E-3	763.780E-3	-47.9346E-3	39.9348E-12	-981.760E-3	27.5730E-3
751.969E-3	12.0289E-12	751.430E-3	751.969E-3	7.79124E-3	39.9464E-12	-962.084E-3	29.1923E-3
740.157E-3	12.0984E-12	739.630E-3	740.157E-3	-22.4761E-3	40.0779E-12	-976.470E-3	23.3216E-3
728.346E-3	11.8500E-12	727.785E-3	728.346E-3	3.41730E-3	40.0244E-12	-977.413E-3	24.2168E-3
716.535E-3	11.6952E-12	716.002E-3	716.535E-3	-64.8240E-3	39.9177E-12	-1.00497E+0	27.0518E-3
704.724E-3	11.6182E-12	704.309E-3	704.724E-3	39.6803E-3	39.9826E-12	-965.561E-3	25.3343E-3
692.913E-3	11.4163E-12	692.511E-3	692.913E-3	-20.4944E-3	40.0319E-12	-982.758E-3	27.6202E-3
681.102E-3	11.3637E-12	680.733E-3	681.102E-3	15.4133E-3	39.9691E-12	-971.988E-3	26.1137E-3
669.291E-3	11.1263E-12	668.911E-3	669.291E-3	52.7426E-3	39.9767E-12	-939.114E-3	27.8814E-3
657.480E-3	11.0706E-12	657.080E-3	657.480E-3	78.6255E-3	39.9863E-12	-914.371E-3	27.0986E-3
645.669E-3	10.8967E-12	645.270E-3	645.669E-3	-48.4787E-3	40.0294E-12	-953.307E-3	25.6110E-3
633.858E-3	10.6756E-12	633.468E-3	633.858E-3	207.020E-3	39.9516E-12	-859.794E-3	26.2133E-3
622.047E-3	10.5732E-12	621.658E-3	622.047E-3	-79.8436E-3	39.9950E-12	-936.529E-3	27.7714E-3
610.236E-3	10.4630E-12	609.882E-3	610.236E-3	-10.6251E-3	40.0189E-12	-935.026E-3	25.0085E-3
598.425E-3	10.3800E-12	598.079E-3	598.425E-3	29.1231E-3	39.9586E-12	-914.801E-3	25.9508E-3
586.614E-3	10.2842E-12	586.271E-3	586.614E-3	-112.913E-3	40.0162E-12	-958.654E-3	26.1817E-3
574.803E-3	10.1340E-12	574.454E-3	574.803E-3	24.6916E-3	40.0216E-12	-920.277E-3	26.2734E-3
562.992E-3	9.99043E-12	562.675E-3	562.992E-3	28.1939E-3	40.0162E-12	-920.580E-3	27.2174E-3
551.181E-3	9.85409E-12	550.858E-3	551.181E-3	-24.4061E-3	40.0495E-12	-921.192E-3	23.4198E-3
539.370E-3	9.56090E-12	538.990E-3	539.370E-3	-21.5000E-3	40.0123E-12	-934.038E-3	25.0276E-3
527.559E-3	9.39441E-12	527.212E-3	527.559E-3	-23.0216E-3	39.9503E-12	-940.486E-3	27.6045E-3
515.748E-3	9.32472E-12	515.378E-3	515.748E-3	160.656E-3	40.0164E-12	-875.116E-3	25.7944E-3
503.937E-3	9.05806E-12	503.592E-3	503.937E-3	-155.626E-3	39.8960E-12	-966.610E-3	27.4148E-3
492.126E-3	9.00126E-12	491.767E-3	492.126E-3	91.0298E-3	40.0392E-12	-903.240E-3	25.0917E-3
480.315E-3	8.78329E-12	479.955E-3	480.315E-3	-142.833E-3	39.9405E-12	-978.396E-3	26.8914E-3
468.504E-3	8.50303E-12	468.166E-3	468.504E-3	125.258E-3	39.9095E-12	-919.435E-3	28.3029E-3
456.693E-3	8.43420E-12	456.357E-3	456.693E-3	36.5448E-3	40.0147E-12	-909.162E-3	26.0134E-3
444.882E-3	8.24880E-12	444.591E-3	444.882E-3	135.514E-3	39.9637E-12	-867.964E-3	28.4011E-3
433.071E-3	8.08321E-12	432.754E-3	433.071E-3	-36.6669E-3	40.0144E-12	-911.229E-3	27.4175E-3
421.260E-3	7.88691E-12	420.936E-3	421.260E-3	-84.6581E-3	39.9739E-12	-943.210E-3	28.6549E-3
409.449E-3	7.76918E-12	409.160E-3	409.449E-3	-75.8577E-3	40.0744E-12	-949.019E-3	26.8694E-3
397.638E-3	7.53941E-12	397.324E-3	397.638E-3	92.7640E-3	40.0256E-12	-906.060E-3	24.7590E-3
385.827E-3	7.39472E-12	385.561E-3	385.827E-3	-6.87427E-3	40.0275E-12	-932.553E-3	24.0107E-3
374.016E-3	7.21230E-12	373.721E-3	374.016E-3	-72.0390E-3	40.0637E-12	-938.693E-3	26.4153E-3
362.205E-3	6.99661E-12	361.918E-3	362.205E-3	-17.1076E-3	40.0374E-12	-942.271E-3	23.3474E-3
350.394E-3	6.84294E-12	350.170E-3	350.394E-3	42.0922E-3	39.9260E-12	-923.732E-3	27.4454E-3
338.583E-3	6.63601E-12	338.310E-3	338.583E-3	-125.571E-3	40.0384E-12	-999.754E-3	23.9153E-3
326.772E-3	6.55724E-12	326.516E-3	326.772E-3	27.2561E-3	40.0033E-12	-935.032E-3	24.9973E-3
314.961E-3	6.24261E-12	314.688E-3	314.961E-3	-142.627E-3	39.9619E-12	-1.01058E+0	25.7949E-3
303.150E-3	6.04630E-12	302.867E-3	303.150E-3	35.0578E-3	40.0311E-12	-961.260E-3	26.4056E-3
291.339E-3	5.85259E-12	291.119E-3	291.339E-3	151.253E-3	40.0056E-12	-909.484E-3	25.1357E-3
279.528E-3	5.63657E-12	279.297E-3	279.528E-3	-66.9995E-3	39.9560E-12	-958.078E-3	29.4632E-3
267.717E-3	5.58668E-12	267.476E-3	267.717E-3	-4.00415E-3	40.1255E-12	-962.415E-3	21.3682E-3
255.906E-3	5.28607E-12	255.650E-3	255.906E-3	17.8164E-3	40.0229E-12	-953.884E-3	23.8405E-3
244.094E-3	5.17474E-12	243.875E-3	244.094E-3	-50.6366E-3	40.0037E-12	-979.954E-3	26.6438E-3
232.283E-3	4.92539E-12	232.020E-3	232.283E-3	-59.0995E-3	40.0302E-12	-988.000E-3	24.0259E-3
220.472E-3	4.73027E-12	220.189E-3	220.472E-3	33.9811E-3	39.9256E-12	-970.888E-3	29.7823E-3
208.661E-3	4.51221E-12	208.413E-3	208.661E-3	-121.481E-3	40.0220E-12	-1.02371E+0	27.4208E-3
196.850E-3	4.26949E-12	196.583E-3	196.850E-3	111.575E-3	39.9898E-12	-960.156E-3	26.5086E-3
185.039E-3	4.01902E-12	184.816E-3	185.039E-3	2.38969E-3	40.0162E-12	-959.948E-3	26.0233E-3
173.228E-3	3.81159E-12	173.006E-3	173.228E-3	-21.1651E-3	39.9606E-12	-964.530E-3	26.9929E-3
161.417E-3	3.58945E-12	161.177E-3	161.417E-3	-175.239E-3	40.0357E-12	-1.05057E+0	26.9367E-3
149.606E-3	3.29071E-12	149.346E-3	149.606E-3	-31.3457E-3	40.0179E-12	-1.01854E+0	28.3475E-3
137.795E-3	3.00970E-12	137.558E-3	137.795E-3	14.8664E-3	39.8989E-12	-1.01643E+0	27.6549E-3
125.984E-3	2.83376E-12	125.792E-3	125.984E-3	53.6933E-3	40.0166E-12	-997.617E-3	26.7307E-3
114.173E-3	2.58522E-12	113.957E-3	114.173E-3	-19.8514E-3	40.0958E-12	-1.02363E+0	24.5705E-3
102.362E-3	2.24620E-12	102.148E-3	102.362E-3	-74.6039E-3	39.9172E-12	-1.05030E+0	27.4147E-3
90.5512E-3	2.02294E-12	90.3355E-3	90.5512E-3	35.9856E-3	40.0113E-12	-1.01673E+0	27.7906E-3
78.7402E-3	1.73539E-12	78.5073E-3	78.7402E-3	46.2934E-3	40.0320E-12	-1.02153E+0	25.2016E-3
66.9291E-3	1.49367E-12	66.6338E-3	66.9291E-3	-6.47507E-3	40.0786E-12	-1.03320E+0	26.0371E-3
55.1181E-3	1.19056E-12	54.8632E-3	55.1181E-3	-102.066E-3	39.9750E-12	-1.07529E+0	26.8659E-3
43.3071E-3	913.064E-15	43.0356E-3	43.3071E-3	-40.5612E-3	40.0422E-12	-1.07833E+0	23.9626E-3
31.4961E-3	630.734E-15	31.2052E-3	31.4961E-3	43.8328E-3	39.9590E-12	-1.04277E+0	29.5222E-3
19.6850E-3	358.537E-15	19.4160E-3	19.6850E-3	113.093E-3	39.9722E-12	-1.02398E+0	26.1856E-3
7.87402E-3	70.2808E-15	7.55875E-3	7.87402E-3	-30.6570E-3	40.0252E-12	-1.03323E+0	26.4372E-3
-3.93701E-3	-219.399E-15	-4.33216E-3	-3.93701E-3	-80.5159E-3	40.0098E-12	-1.07951E+0	25.5582E-3
-15.7480E-3	-510.870E-15	-16.1043E-3	-15.7480E-3	23.3998E-3	39.9845E-12	-1.04923E+0	26.3921E-3
-27.5591E-3	-796.381E-15	-27.9221E-3	-27.5591E-3	99.8357E-3	40.0394E-12	-1.01958E+0	24.1487E-3
-39.3701E-3	-1.07567E-12	-39.6881E-3	-39.3701E-3	-110.572E-3	39.9513E-12	-1.08062E+0	27.2419E-3
-51.1811E-3	-1.36145E-12	-51.5557E-3	-51.1811E-3	-194.567E-3	40.0345E-12	-1.13622E+0	24.0628E-3
-62.9921E-3	-1.63942E-12	-63.3229E-3	-62.9921E-3	-65.3707E-3	40.0109E-12	-1.14804E+0	24.4465E-3
-74.8032E-3	-1.86898E-12	-75.1524E-3	-74.8032E-3	-113.502E-3	39.9887E-12	-1.16458E+0	25.8985E-3
-86.6142E-3	-1.97465E-12	-87.0059E-3	-86.6142E-3	32.5637E-3	39.9803E-12	-1.12259E+0	26.1679E-3
-98.4252E-3	-2.10221E-12	-98.7702E-3	-98.4252E-3	-86.4217E-3	39.9495E-12	-1.14710E+0	26.7645E-3
-110.236E-3	-2.23870E-12	-110.640E-3	-110.236E-3	30.8477E-3	40.0565E-12	-1.11273E+0	26.1201E-3
-122.047E-3	-2.31704E-12	-122.375E-3	-122.047E-3	11.1350E-3	39.9735E-12	-1.12591E+0	27.7263E-3
-133.858E-3	-2.47786E-12	-134.235E-3	-133.858E-3	-62.7600E-3	40.0366E-12	-1.14644E+0	25.1376E-3
-145.669E-3	-2.60279E-12	-146.036E-3	-145.669E-3	-19.0614E-3	39.9802E-12	-1.14210E+0	24.9982E-3
-157.480E-3	-2.78197E-12	-157.807E-3	-157.480E-3	-129.468E-3	40.0245E-12	-1.21464E+0	24.9265E-3
-169.291E-3	-2.86542E-12	-169.681E-3	-169.291E-3	105.479E-3	39.9708E-12	-1.14620E+0	25.4825E-3
-181.102E-3	-2.99922E-12	-181.417E-3	-181.102E-3	28.1178E-3	39.9232E-12	-1.14510E+0	25.0583E-3
-192.913E-3	-3.14098E-12	-193.230E-3	-192.913E-3	-95.6584E-3	40.0028E-12	-1.19425E+0	24.6272E-3
-204.724E-3	-3.24416E-12	-205.057E-3	-204.724E-3	14.9058E-3	39.9849E-12	-1.18962E+0	26.7248E-3
-216.535E-3	-3.37272E-12	-216.863E-3	-216.535E-3	-59.0693E-3	39.9994E-12	-1.22045E+0	25.7368E-3
-228.346E-3	-3.49718E-12	-228.676E-3	-228.346E-3	-33.5193E-3	39.9806E-12	-1.22809E+0	27.0854E-3
-240.157E-3	-3.61404E-12	-240.473E-3	-240.157E-3	36.4868E-3	40.0440E-12	-1.21076E+0	25.4415E-3
-251.969E-3	-3.72887E-12	-252.297E-3	-251.969E-3	-5.22551E-3	39.9895E-12	-1.22605E+0	24.7754E-3
-263.780E-3	-3.85135E-12	-264.062E-3	-263.780E-3	-1.60930E-3	39.9458E-12	-1.23669E+0	28.5054E-3
-275.591E-3	-4.05799E-12	-275.867E-3	-275.591E-3	-37.7777E-3	39.9908E-12	-1.25833E+0	26.8938E-3
-287.402E-3	-4.14506E-12	-287.715E-3	-287.402E-3	-172.736E-3	39.9861E-12	-1.31665E+0	28.6758E-3
-299.213E-3	-4.35870E-12	-299.514E-3	-299.213E-3	-12.3160E-3	40.0054E-12	-1.30143E+0	25.8174E-3
-311.024E-3	-4.42798E-12	-311.339E-3	-311.024E-3	-41.0976E-3	39.9827E-12	-1.32462E+0	27.1140E-3
-322.835E-3	-4.57578E-12	-323.131E-3	-322.835E-3	-16.8013E-3	39.9854E-12	-1.31735E+0	24.7734E-3
-334.646E-3	-4.66982E-12	-334.900E-3	-334.646E-3	-13.6538E-3	40.0490E-12	-1.34724E+0	25.3823E-3
-346.457E-3	-4.82897E-12	-346.718E-3	-346.457E-3	75.2710E-3	39.9823E-12	-1.31978E+0	26.9653E-3
-358.268E-3	-4.92970E-12	-358.553E-3	-358.268E-3	-75.9475E-3	40.0481E-12	-1.37474E+0	27.0215E-3
-370.079E-3	-5.06166E-12	-370.358E-3	-370.079E-3	71.5442E-3	39.9498E-12	-1.31411E+0	28.7496E-3
-381.890E-3	-5.20885E-12	-382.116E-3	-381.890E-3	-36.1119E-3	40.1330E-12	-1.35502E+0	23.8691E-3
-393.701E-3	-5.37420E-12	-393.991E-3	-393.701E-3	-36.9124E-3	39.9815E-12	-1.37694E+0	25.5039E-3
-405.512E-3	-5.49001E-12	-405.801E-3	-405.512E-3	-94.5090E-3	39.9992E-12	-1.39769E+0	26.5335E-3
-417.323E-3	-5.68877E-12	-417.602E-3	-417.323E-3	-66.4107E-3	40.0485E-12	-1.41426E+0	23.1632E-3
-429.134E-3	-5.81913E-12	-429.414E-3	-429.134E-3	50.3470E-3	39.9338E-12	-1.38642E+0	29.3545E-3
-440.945E-3	-6.00725E-12	-441.219E-3	-440.945E-3	-33.4145E-3	39.9683E-12	-1.41052E+0	27.1175E-3
-452.756E-3	-6.12742E-12	-453.029E-3	-452.756E-3	-215.163E-3	40.0104E-12	-1.48886E+0	25.0507E-3
-464.567E-3	-6.46838E-12	-464.847E-3	-464.567E-3	-20.7193E-3	39.9841E-12	-1.46374E+0	27.1969E-3
-476.378E-3	-6.65678E-12	-476.674E-3	-476.378E-3	-119.601E-3	40.0156E-12	-1.49600E+0	24.8661E-3
-488.189E-3	-6.88894E-12	-488.396E-3	-488.189E-3	-19.5649E-3	39.9740E-12	-1.48342E+0	25.1511E-3
-500.000E-3	-7.26561E-12	-500.229E-3	-500.000E-3	-138.122E-3	40.0195E-12	-1.54326E+0	25.5916E-3
