Experiment	bias spectroscopy	
Date	01.12.2015 12:36:15	
User		
X (m)	278.431E-9	
Y (m)	-137.954E-9	
Z (m)	-4.15189E-9	
Z offset (m)	0E+0	
Settling time (s)	30E-3	
Integration time (s)	200E-3	
Z-Ctrl hold	TRUE	
Final Z (m)	-4.15189E-9	
Filter type	None	
Order		
Cutoff frq		
Current (A)	73.4599E-12	
Z (m)	-4.15189E-9	
Phase (deg)	615.18E-3	
Amplitude (m)	40.7788E-12	
Frequency Shift (Hz)	-944.16E-3	
Excitation (V)	-1.54492E-3	

[DATA]
Bias calc (V)	Current (A)	Applied Voltage measured (V)	Bias (V)	Phase (deg)	Amplitude (m)	Frequency Shift (Hz)	Excitation (V)
1.00000E+0	72.3930E-12	999.333E-3	1.00000E+0	-46.9948E-3	39.9182E-12	-1.19018E+0	24.7691E-3
988.189E-3	71.4646E-12	987.539E-3	988.189E-3	53.1741E-3	39.9936E-12	-1.12604E+0	25.6105E-3
976.378E-3	71.0458E-12	975.769E-3	976.378E-3	109.401E-3	39.9635E-12	-1.11362E+0	22.4779E-3
964.567E-3	70.9333E-12	963.905E-3	964.567E-3	-140.300E-3	40.0540E-12	-1.18900E+0	25.6531E-3
952.756E-3	69.7456E-12	952.150E-3	952.756E-3	76.8585E-3	39.9701E-12	-1.11688E+0	25.1694E-3
940.945E-3	69.0268E-12	940.307E-3	940.945E-3	-40.8795E-3	39.8667E-12	-1.15248E+0	25.3567E-3
929.134E-3	69.2683E-12	928.492E-3	929.134E-3	221.993E-3	40.0596E-12	-1.04796E+0	25.2947E-3
917.323E-3	68.2987E-12	916.743E-3	917.323E-3	-58.3597E-3	39.9823E-12	-1.13972E+0	23.1356E-3
905.512E-3	67.7471E-12	904.893E-3	905.512E-3	17.3190E-3	39.9643E-12	-1.10743E+0	25.0800E-3
893.701E-3	67.2118E-12	893.136E-3	893.701E-3	-129.205E-3	40.0112E-12	-1.16022E+0	22.4595E-3
881.890E-3	66.5791E-12	881.294E-3	881.890E-3	4.11736E-3	40.0249E-12	-1.14712E+0	21.9776E-3
870.079E-3	66.0891E-12	869.489E-3	870.079E-3	-69.2847E-3	39.9607E-12	-1.13544E+0	26.0479E-3
858.268E-3	65.4020E-12	857.668E-3	858.268E-3	135.202E-3	39.9646E-12	-1.05752E+0	26.2504E-3
846.457E-3	64.5739E-12	845.836E-3	846.457E-3	-100.724E-3	39.9948E-12	-1.14353E+0	23.7526E-3
834.646E-3	64.1247E-12	834.053E-3	834.646E-3	70.6219E-3	40.0075E-12	-1.07377E+0	27.1834E-3
822.835E-3	63.7955E-12	822.240E-3	822.835E-3	-225.587E-3	40.0966E-12	-1.16843E+0	20.7420E-3
811.024E-3	63.2392E-12	810.425E-3	811.024E-3	68.9951E-3	39.9705E-12	-1.05911E+0	24.6512E-3
799.213E-3	63.3460E-12	798.653E-3	799.213E-3	177.213E-3	40.0549E-12	-1.02656E+0	22.9387E-3
787.402E-3	62.0919E-12	786.822E-3	787.402E-3	-190.055E-3	39.8402E-12	-1.13272E+0	28.8589E-3
775.591E-3	61.5802E-12	775.035E-3	775.591E-3	248.307E-3	40.0371E-12	-991.948E-3	24.1464E-3
763.780E-3	58.8412E-12	763.205E-3	763.780E-3	-30.1859E-3	40.0367E-12	-1.11448E+0	21.1038E-3
751.969E-3	56.9160E-12	751.438E-3	751.969E-3	217.538E-3	40.0863E-12	-1.01105E+0	25.2681E-3
740.157E-3	56.0138E-12	739.637E-3	740.157E-3	16.5473E-3	40.0508E-12	-1.05250E+0	21.9113E-3
728.346E-3	60.0523E-12	727.801E-3	728.346E-3	162.406E-3	40.0130E-12	-996.955E-3	25.2157E-3
716.535E-3	57.8415E-12	716.012E-3	716.535E-3	-77.4944E-3	39.9522E-12	-1.06426E+0	24.7572E-3
704.724E-3	57.8913E-12	704.324E-3	704.724E-3	132.514E-3	39.9456E-12	-992.805E-3	29.1488E-3
692.913E-3	57.0224E-12	692.529E-3	692.913E-3	-106.679E-3	40.1324E-12	-1.06503E+0	21.1368E-3
681.102E-3	55.7814E-12	680.760E-3	681.102E-3	-75.3475E-3	39.8973E-12	-1.08550E+0	23.2751E-3
669.291E-3	55.8009E-12	668.939E-3	669.291E-3	-36.0859E-3	40.0401E-12	-1.05982E+0	27.1386E-3
657.480E-3	54.6029E-12	657.098E-3	657.480E-3	73.8598E-3	39.9142E-12	-1.03399E+0	25.6669E-3
645.669E-3	54.1355E-12	645.289E-3	645.669E-3	243.776E-3	39.9803E-12	-949.418E-3	26.0040E-3
633.858E-3	53.3147E-12	633.484E-3	633.858E-3	150.645E-3	39.9938E-12	-938.708E-3	26.1460E-3
622.047E-3	53.3249E-12	621.680E-3	622.047E-3	-137.682E-3	40.1348E-12	-1.04219E+0	20.8245E-3
610.236E-3	52.1338E-12	609.904E-3	610.236E-3	-57.8063E-3	39.9127E-12	-1.05154E+0	25.1655E-3
598.425E-3	51.3105E-12	598.094E-3	598.425E-3	141.037E-3	40.0876E-12	-1.00043E+0	22.1355E-3
586.614E-3	50.3571E-12	586.290E-3	586.614E-3	-85.9692E-3	39.9346E-12	-1.05628E+0	24.5768E-3
574.803E-3	49.6250E-12	574.468E-3	574.803E-3	190.993E-3	40.0326E-12	-965.441E-3	25.9552E-3
562.992E-3	48.5568E-12	562.689E-3	562.992E-3	-218.708E-3	39.9136E-12	-1.08110E+0	24.6286E-3
551.181E-3	47.9229E-12	550.870E-3	551.181E-3	-29.9018E-3	40.0984E-12	-1.07826E+0	20.2299E-3
539.370E-3	46.7935E-12	539.001E-3	539.370E-3	27.6475E-3	39.9935E-12	-1.04661E+0	23.5091E-3
527.559E-3	46.7984E-12	527.219E-3	527.559E-3	29.8706E-3	39.9407E-12	-1.00892E+0	27.6086E-3
515.748E-3	45.3078E-12	515.386E-3	515.748E-3	71.8069E-3	40.0474E-12	-1.01590E+0	23.5972E-3
503.937E-3	44.6359E-12	503.609E-3	503.937E-3	69.2288E-3	39.9710E-12	-986.688E-3	28.5877E-3
492.126E-3	43.3525E-12	491.790E-3	492.126E-3	-19.1912E-3	40.0375E-12	-1.00352E+0	24.2609E-3
480.315E-3	42.0841E-12	479.974E-3	480.315E-3	-20.3299E-3	39.9325E-12	-1.02059E+0	28.0068E-3
468.504E-3	42.0883E-12	468.176E-3	468.504E-3	10.8535E-3	40.0375E-12	-1.00214E+0	25.0808E-3
456.693E-3	41.0345E-12	456.367E-3	456.693E-3	-15.2944E-3	39.9974E-12	-1.00476E+0	23.4372E-3
444.882E-3	40.5592E-12	444.597E-3	444.882E-3	-37.5936E-3	40.0133E-12	-1.02657E+0	23.5103E-3
433.071E-3	38.9996E-12	432.767E-3	433.071E-3	226.952E-3	39.9903E-12	-949.593E-3	23.5245E-3
421.260E-3	38.0526E-12	420.956E-3	421.260E-3	-195.997E-3	40.0023E-12	-1.09410E+0	28.1167E-3
409.449E-3	36.9351E-12	409.182E-3	409.449E-3	-20.5515E-3	39.9286E-12	-1.05575E+0	25.9561E-3
397.638E-3	36.5338E-12	397.329E-3	397.638E-3	69.6430E-3	40.0255E-12	-1.02654E+0	28.1301E-3
385.827E-3	35.5013E-12	385.568E-3	385.827E-3	49.7780E-3	39.9944E-12	-1.03161E+0	26.4175E-3
374.016E-3	34.2958E-12	373.719E-3	374.016E-3	88.3493E-3	39.9754E-12	-1.01797E+0	27.4107E-3
362.205E-3	33.3451E-12	361.925E-3	362.205E-3	-65.4341E-3	40.0305E-12	-1.05171E+0	22.3805E-3
350.394E-3	31.9672E-12	350.176E-3	350.394E-3	-114.030E-3	39.9919E-12	-1.09234E+0	24.6635E-3
338.583E-3	31.3638E-12	338.311E-3	338.583E-3	-177.241E-3	40.0088E-12	-1.13781E+0	24.7320E-3
326.772E-3	29.9003E-12	326.523E-3	326.772E-3	175.129E-3	40.0627E-12	-1.02421E+0	23.4742E-3
314.961E-3	28.9409E-12	314.704E-3	314.961E-3	137.104E-3	40.0522E-12	-1.00327E+0	22.7867E-3
303.150E-3	28.1570E-12	302.884E-3	303.150E-3	-27.3712E-3	39.9202E-12	-1.05630E+0	27.8738E-3
291.339E-3	26.9496E-12	291.137E-3	291.339E-3	115.912E-3	40.0068E-12	-1.01017E+0	25.4913E-3
279.528E-3	25.9738E-12	279.303E-3	279.528E-3	-52.6938E-3	40.0378E-12	-1.06661E+0	20.4988E-3
267.717E-3	24.7560E-12	267.489E-3	267.717E-3	-198.219E-3	40.0230E-12	-1.13284E+0	25.8587E-3
255.906E-3	23.9088E-12	255.661E-3	255.906E-3	168.170E-3	40.0722E-12	-1.04330E+0	24.6896E-3
244.094E-3	22.4705E-12	243.885E-3	244.094E-3	-96.5687E-3	40.0046E-12	-1.11223E+0	21.8362E-3
232.283E-3	21.1857E-12	232.036E-3	232.283E-3	153.224E-3	39.9111E-12	-1.02549E+0	26.4001E-3
220.472E-3	20.3524E-12	220.205E-3	220.472E-3	-270.838E-3	39.9798E-12	-1.16163E+0	24.5235E-3
208.661E-3	19.4640E-12	208.427E-3	208.661E-3	142.011E-3	39.9726E-12	-1.05957E+0	26.5563E-3
196.850E-3	18.0700E-12	196.588E-3	196.850E-3	-79.2867E-3	39.9739E-12	-1.12846E+0	26.9044E-3
185.039E-3	17.1841E-12	184.819E-3	185.039E-3	-55.7316E-3	39.9871E-12	-1.13180E+0	26.7102E-3
173.228E-3	16.1421E-12	173.006E-3	173.228E-3	110.082E-3	40.0583E-12	-1.08086E+0	23.4085E-3
161.417E-3	15.1662E-12	161.167E-3	161.417E-3	2.77049E-3	40.0019E-12	-1.09183E+0	26.1300E-3
149.606E-3	14.0433E-12	149.348E-3	149.606E-3	-49.8207E-3	40.0223E-12	-1.10256E+0	26.8426E-3
137.795E-3	12.8295E-12	137.553E-3	137.795E-3	-126.194E-3	39.9363E-12	-1.17408E+0	28.5339E-3
125.984E-3	11.6362E-12	125.794E-3	125.984E-3	-44.2321E-3	40.1036E-12	-1.16407E+0	21.8251E-3
114.173E-3	10.3141E-12	113.962E-3	114.173E-3	-9.65965E-3	39.9426E-12	-1.15373E+0	27.5510E-3
102.362E-3	9.33477E-12	102.153E-3	102.362E-3	83.1534E-3	40.0083E-12	-1.12111E+0	26.6191E-3
90.5512E-3	8.12584E-12	90.3475E-3	90.5512E-3	-61.6901E-3	39.9995E-12	-1.18454E+0	26.0855E-3
78.7402E-3	7.05245E-12	78.5167E-3	78.7402E-3	195.902E-3	39.9639E-12	-1.11070E+0	29.3539E-3
66.9291E-3	5.99869E-12	66.6426E-3	66.9291E-3	54.3691E-3	40.0312E-12	-1.12773E+0	26.3873E-3
55.1181E-3	4.94606E-12	54.8717E-3	55.1181E-3	-163.938E-3	40.0108E-12	-1.21694E+0	27.0383E-3
43.3071E-3	3.93830E-12	43.0503E-3	43.3071E-3	34.8274E-3	40.0520E-12	-1.16432E+0	27.2132E-3
31.4961E-3	2.76979E-12	31.2256E-3	31.4961E-3	14.8370E-3	40.0648E-12	-1.17573E+0	24.1901E-3
19.6850E-3	1.72012E-12	19.4402E-3	19.6850E-3	-50.3839E-3	40.0267E-12	-1.18918E+0	25.7383E-3
7.87402E-3	646.625E-15	7.57529E-3	7.87402E-3	-212.636E-3	39.9786E-12	-1.26886E+0	26.9698E-3
-3.93701E-3	-430.958E-15	-4.31145E-3	-3.93701E-3	40.7495E-3	40.0646E-12	-1.22242E+0	25.7634E-3
-15.7480E-3	-1.48817E-12	-16.0884E-3	-15.7480E-3	-1.70146E-3	39.9936E-12	-1.23402E+0	23.9693E-3
-27.5591E-3	-2.59678E-12	-27.8966E-3	-27.5591E-3	40.0614E-3	39.9326E-12	-1.22400E+0	28.0685E-3
-39.3701E-3	-3.64657E-12	-39.6658E-3	-39.3701E-3	-118.902E-3	39.9403E-12	-1.29240E+0	28.8243E-3
-51.1811E-3	-4.70480E-12	-51.5233E-3	-51.1811E-3	117.992E-3	40.0196E-12	-1.23079E+0	28.9263E-3
-62.9921E-3	-5.66583E-12	-63.2904E-3	-62.9921E-3	-171.320E-3	39.9806E-12	-1.32855E+0	24.6824E-3
-74.8032E-3	-6.29324E-12	-75.1347E-3	-74.8032E-3	41.5707E-3	39.9497E-12	-1.28683E+0	26.6360E-3
-86.6142E-3	-6.74556E-12	-86.9983E-3	-86.6142E-3	186.192E-3	40.0622E-12	-1.20459E+0	25.0489E-3
-98.4252E-3	-7.17878E-12	-98.7677E-3	-98.4252E-3	18.2521E-3	39.9667E-12	-1.26270E+0	24.9394E-3
-110.236E-3	-7.64045E-12	-110.627E-3	-110.236E-3	-34.6290E-3	40.0595E-12	-1.28672E+0	25.6968E-3
-122.047E-3	-7.91527E-12	-122.362E-3	-122.047E-3	-9.38187E-3	39.9795E-12	-1.31763E+0	26.6820E-3
-133.858E-3	-8.57908E-12	-134.218E-3	-133.858E-3	-54.8056E-3	40.0305E-12	-1.33723E+0	25.7682E-3
-145.669E-3	-9.06923E-12	-146.023E-3	-145.669E-3	-32.4778E-3	40.0014E-12	-1.35825E+0	25.7619E-3
-157.480E-3	-9.37980E-12	-157.794E-3	-157.480E-3	65.5902E-3	39.9419E-12	-1.32416E+0	29.9300E-3
-169.291E-3	-9.81968E-12	-169.659E-3	-169.291E-3	-21.8272E-3	39.9551E-12	-1.34880E+0	27.0201E-3
-181.102E-3	-10.3755E-12	-181.409E-3	-181.102E-3	215.485E-3	40.0428E-12	-1.27414E+0	27.0599E-3
-192.913E-3	-10.8820E-12	-193.217E-3	-192.913E-3	-173.982E-3	39.9545E-12	-1.38706E+0	26.1665E-3
-204.724E-3	-11.5155E-12	-205.049E-3	-204.724E-3	-49.7879E-3	40.0325E-12	-1.36021E+0	26.9598E-3
-216.535E-3	-11.8701E-12	-216.859E-3	-216.535E-3	-43.3264E-3	39.9423E-12	-1.39956E+0	26.6838E-3
-228.346E-3	-12.4626E-12	-228.675E-3	-228.346E-3	125.582E-3	40.0106E-12	-1.35412E+0	27.0594E-3
-240.157E-3	-13.0614E-12	-240.478E-3	-240.157E-3	136.944E-3	39.9662E-12	-1.35397E+0	27.3565E-3
-251.969E-3	-13.8206E-12	-252.310E-3	-251.969E-3	-68.1257E-3	40.0062E-12	-1.41374E+0	24.2769E-3
-263.780E-3	-14.3243E-12	-264.073E-3	-263.780E-3	22.4754E-3	40.0054E-12	-1.39649E+0	29.5364E-3
-275.591E-3	-14.8376E-12	-275.885E-3	-275.591E-3	-200.939E-3	39.8866E-12	-1.46760E+0	32.2406E-3
-287.402E-3	-15.7855E-12	-287.719E-3	-287.402E-3	-86.3590E-3	40.0378E-12	-1.47435E+0	28.4179E-3
-299.213E-3	-16.1627E-12	-299.504E-3	-299.213E-3	74.1173E-3	39.9787E-12	-1.41518E+0	27.7213E-3
-311.024E-3	-16.8818E-12	-311.342E-3	-311.024E-3	-103.886E-3	39.9899E-12	-1.47040E+0	29.1278E-3
-322.835E-3	-17.5757E-12	-323.136E-3	-322.835E-3	-38.1164E-3	40.1079E-12	-1.48946E+0	24.9830E-3
-334.646E-3	-18.2493E-12	-334.909E-3	-334.646E-3	161.276E-3	39.9796E-12	-1.42371E+0	25.3148E-3
-346.457E-3	-18.7330E-12	-346.718E-3	-346.457E-3	46.4107E-3	39.9888E-12	-1.46913E+0	28.7488E-3
-358.268E-3	-19.5423E-12	-358.560E-3	-358.268E-3	-37.7875E-3	39.9820E-12	-1.48326E+0	27.8076E-3
-370.079E-3	-20.0861E-12	-370.362E-3	-370.079E-3	-112.415E-3	40.0196E-12	-1.54109E+0	26.4338E-3
-381.890E-3	-20.8558E-12	-382.118E-3	-381.890E-3	-71.3844E-3	40.0340E-12	-1.51399E+0	27.3560E-3
-393.701E-3	-21.2423E-12	-393.995E-3	-393.701E-3	-107.897E-3	40.0078E-12	-1.56428E+0	27.5619E-3
-405.512E-3	-22.0444E-12	-405.801E-3	-405.512E-3	-27.7585E-3	39.9853E-12	-1.56245E+0	30.6355E-3
-417.323E-3	-22.8603E-12	-417.602E-3	-417.323E-3	9.06318E-3	39.9879E-12	-1.55239E+0	28.5915E-3
-429.134E-3	-23.7109E-12	-429.415E-3	-429.134E-3	-100.306E-3	39.9937E-12	-1.61373E+0	28.0882E-3
-440.945E-3	-24.5089E-12	-441.216E-3	-440.945E-3	-69.6748E-3	40.0224E-12	-1.62907E+0	27.3564E-3
-452.756E-3	-25.2891E-12	-453.016E-3	-452.756E-3	-193.218E-3	39.9092E-12	-1.67700E+0	29.0483E-3
-464.567E-3	-25.7311E-12	-464.844E-3	-464.567E-3	-16.5116E-3	39.9660E-12	-1.61764E+0	30.4046E-3
-476.378E-3	-26.5415E-12	-476.677E-3	-476.378E-3	-130.447E-3	39.9788E-12	-1.66789E+0	30.9800E-3
-488.189E-3	-27.1918E-12	-488.397E-3	-488.189E-3	-79.9202E-3	40.0703E-12	-1.68060E+0	26.3663E-3
-500.000E-3	-27.9081E-12	-500.247E-3	-500.000E-3	38.3569E-3	40.0033E-12	-1.65559E+0	27.1662E-3
