Experiment	bias spectroscopy	
Date	01.12.2015 01:57:53	
User		
X (m)	280.468E-9	
Y (m)	-138.749E-9	
Z (m)	-4.07703E-9	
Z offset (m)	0E+0	
Settling time (s)	30E-3	
Integration time (s)	200E-3	
Z-Ctrl hold	TRUE	
Final Z (m)	-4.07703E-9	
Filter type	None	
Order		
Cutoff frq		
Current (A)	59.1958E-12	
Z (m)	-4.07703E-9	
Phase (deg)	-200.239E-3	
Amplitude (m)	39.9489E-12	
Frequency Shift (Hz)	-1.30198E+0	
Excitation (V)	14.6931E-3	

[DATA]
Bias calc (V)	Current (A)	Applied Voltage measured (V)	Bias (V)	Phase (deg)	Amplitude (m)	Frequency Shift (Hz)	Excitation (V)
1.00000E+0	58.1790E-12	999.320E-3	1.00000E+0	-55.5317E-3	39.9359E-12	-1.30973E+0	23.2028E-3
988.189E-3	57.6994E-12	987.531E-3	988.189E-3	-65.2650E-3	39.9487E-12	-1.29012E+0	25.8363E-3
976.378E-3	57.3633E-12	975.770E-3	976.378E-3	-10.1117E-3	39.9932E-12	-1.27769E+0	20.9417E-3
964.567E-3	57.0232E-12	963.897E-3	964.567E-3	214.486E-3	39.9703E-12	-1.18542E+0	27.6966E-3
952.756E-3	56.8685E-12	952.143E-3	952.756E-3	-163.252E-3	40.0531E-12	-1.28578E+0	22.6679E-3
940.945E-3	56.1792E-12	940.308E-3	940.945E-3	137.507E-3	40.0149E-12	-1.18917E+0	21.3261E-3
929.134E-3	55.4461E-12	928.488E-3	929.134E-3	-160.663E-3	39.9803E-12	-1.26721E+0	24.6522E-3
917.323E-3	55.4942E-12	916.747E-3	917.323E-3	52.4745E-3	40.0429E-12	-1.21545E+0	24.5216E-3
905.512E-3	54.3328E-12	904.881E-3	905.512E-3	173.498E-3	40.0127E-12	-1.12825E+0	26.8803E-3
893.701E-3	53.7130E-12	893.128E-3	893.701E-3	-201.229E-3	39.9579E-12	-1.24962E+0	24.5262E-3
881.890E-3	53.5582E-12	881.291E-3	881.890E-3	58.8729E-3	40.1114E-12	-1.17160E+0	23.6326E-3
870.079E-3	52.8893E-12	869.482E-3	870.079E-3	245.943E-6	39.9044E-12	-1.20786E+0	25.0221E-3
858.268E-3	52.5373E-12	857.653E-3	858.268E-3	215.990E-3	40.0416E-12	-1.12455E+0	24.3620E-3
846.457E-3	52.1531E-12	845.819E-3	846.457E-3	-230.264E-3	40.0029E-12	-1.23622E+0	24.8816E-3
834.646E-3	51.2878E-12	834.041E-3	834.646E-3	176.355E-3	40.0632E-12	-1.12933E+0	22.5266E-3
822.835E-3	50.6349E-12	822.224E-3	822.835E-3	-6.23864E-3	39.9164E-12	-1.19737E+0	26.2979E-3
811.024E-3	50.2337E-12	810.403E-3	811.024E-3	-46.7962E-3	40.0218E-12	-1.18917E+0	23.7222E-3
799.213E-3	49.8333E-12	798.634E-3	799.213E-3	30.7131E-3	39.9908E-12	-1.13269E+0	25.7107E-3
787.402E-3	48.9929E-12	786.798E-3	787.402E-3	-129.787E-3	40.0026E-12	-1.22603E+0	23.6645E-3
775.591E-3	48.6009E-12	775.009E-3	775.591E-3	54.6165E-3	39.9916E-12	-1.17909E+0	25.0960E-3
763.780E-3	47.6904E-12	763.186E-3	763.780E-3	96.3489E-3	39.9974E-12	-1.16467E+0	25.0133E-3
751.969E-3	47.9793E-12	751.409E-3	751.969E-3	171.104E-3	40.0763E-12	-1.09084E+0	24.7244E-3
740.157E-3	47.3479E-12	739.611E-3	740.157E-3	16.6898E-3	39.9895E-12	-1.13256E+0	21.5115E-3
728.346E-3	46.1515E-12	727.772E-3	728.346E-3	-20.5422E-3	39.9549E-12	-1.16866E+0	25.9578E-3
716.535E-3	46.1571E-12	715.988E-3	716.535E-3	-171.875E-3	40.0510E-12	-1.19098E+0	24.0820E-3
704.724E-3	45.0388E-12	704.295E-3	704.724E-3	198.336E-3	40.0157E-12	-1.08987E+0	25.6507E-3
692.913E-3	44.4100E-12	692.507E-3	692.913E-3	78.7983E-3	40.0332E-12	-1.09857E+0	24.3204E-3
681.102E-3	43.7805E-12	680.726E-3	681.102E-3	-90.3944E-3	39.9697E-12	-1.15099E+0	23.7356E-3
669.291E-3	43.8069E-12	668.913E-3	669.291E-3	128.873E-3	40.0063E-12	-1.06699E+0	26.8986E-3
657.480E-3	43.0743E-12	657.068E-3	657.480E-3	-89.5699E-3	40.0330E-12	-1.13472E+0	22.8638E-3
645.669E-3	42.3881E-12	645.270E-3	645.669E-3	-2.48374E-3	39.9914E-12	-1.11044E+0	27.9165E-3
633.858E-3	41.3270E-12	633.458E-3	633.858E-3	-79.5639E-3	40.0909E-12	-1.16567E+0	21.6037E-3
622.047E-3	40.8383E-12	621.649E-3	622.047E-3	-4.81711E-3	40.0269E-12	-1.11823E+0	23.9355E-3
610.236E-3	39.6514E-12	609.881E-3	610.236E-3	119.779E-3	39.9308E-12	-1.06934E+0	27.7887E-3
598.425E-3	39.4246E-12	598.074E-3	598.425E-3	-44.2050E-3	39.9800E-12	-1.11771E+0	27.8250E-3
586.614E-3	38.9579E-12	586.270E-3	586.614E-3	-98.5329E-3	39.9699E-12	-1.14303E+0	25.8777E-3
574.803E-3	38.9758E-12	574.448E-3	574.803E-3	112.633E-3	40.0190E-12	-1.06640E+0	25.2897E-3
562.992E-3	37.3835E-12	562.670E-3	562.992E-3	110.441E-3	40.0247E-12	-1.04530E+0	22.3693E-3
551.181E-3	36.9807E-12	550.856E-3	551.181E-3	-11.3891E-3	39.9479E-12	-1.08208E+0	27.3122E-3
539.370E-3	36.6724E-12	538.987E-3	539.370E-3	-36.0916E-3	40.1273E-12	-1.09392E+0	23.8245E-3
527.559E-3	35.4387E-12	527.206E-3	527.559E-3	32.9767E-3	39.9322E-12	-1.08701E+0	24.3116E-3
515.748E-3	34.9156E-12	515.373E-3	515.748E-3	16.9149E-3	40.0562E-12	-1.09548E+0	24.2924E-3
503.937E-3	34.0420E-12	503.601E-3	503.937E-3	-57.8276E-3	39.9815E-12	-1.11001E+0	25.0997E-3
492.126E-3	33.7940E-12	491.774E-3	492.126E-3	-154.912E-3	39.9692E-12	-1.17412E+0	26.6387E-3
480.315E-3	33.0117E-12	479.959E-3	480.315E-3	92.3066E-3	40.0240E-12	-1.12220E+0	25.3779E-3
468.504E-3	31.9815E-12	468.164E-3	468.504E-3	100.870E-3	39.9817E-12	-1.10794E+0	28.0216E-3
456.693E-3	31.1142E-12	456.351E-3	456.693E-3	-34.5733E-3	39.9995E-12	-1.14629E+0	24.5839E-3
444.882E-3	30.4032E-12	444.578E-3	444.882E-3	54.0228E-3	40.0580E-12	-1.11624E+0	21.2085E-3
433.071E-3	29.4623E-12	432.747E-3	433.071E-3	35.4958E-3	39.9949E-12	-1.11211E+0	24.2167E-3
421.260E-3	28.5666E-12	420.937E-3	421.260E-3	-75.8905E-3	40.0019E-12	-1.15013E+0	24.1270E-3
409.449E-3	28.0446E-12	409.151E-3	409.449E-3	156.548E-3	39.9861E-12	-1.06037E+0	26.6005E-3
397.638E-3	27.4988E-12	397.310E-3	397.638E-3	-125.093E-3	40.0038E-12	-1.16230E+0	24.3919E-3
385.827E-3	26.8311E-12	385.550E-3	385.827E-3	137.140E-3	40.0115E-12	-1.08324E+0	24.6235E-3
374.016E-3	25.7322E-12	373.703E-3	374.016E-3	123.121E-3	39.9194E-12	-1.07882E+0	27.6702E-3
362.205E-3	25.0710E-12	361.913E-3	362.205E-3	-126.603E-3	39.9926E-12	-1.16855E+0	25.2893E-3
350.394E-3	24.4139E-12	350.151E-3	350.394E-3	9.33540E-3	40.0599E-12	-1.13986E+0	22.6984E-3
338.583E-3	23.5108E-12	338.289E-3	338.583E-3	-30.3511E-3	40.0026E-12	-1.15157E+0	22.6529E-3
326.772E-3	22.5592E-12	326.507E-3	326.772E-3	-104.667E-3	40.0194E-12	-1.17972E+0	24.5393E-3
314.961E-3	22.1648E-12	314.668E-3	314.961E-3	-41.1225E-3	40.0009E-12	-1.16965E+0	25.0079E-3
303.150E-3	21.1520E-12	302.856E-3	303.150E-3	-19.0880E-3	39.9039E-12	-1.17724E+0	28.2109E-3
291.339E-3	20.6794E-12	291.110E-3	291.339E-3	43.2837E-3	40.0345E-12	-1.17211E+0	25.5017E-3
279.528E-3	19.7011E-12	279.275E-3	279.528E-3	-69.4200E-3	40.0089E-12	-1.20980E+0	25.5011E-3
267.717E-3	18.8077E-12	267.459E-3	267.717E-3	70.9225E-3	39.9864E-12	-1.16998E+0	25.8599E-3
255.906E-3	18.2339E-12	255.632E-3	255.906E-3	-134.035E-3	39.9779E-12	-1.24443E+0	26.1873E-3
244.094E-3	17.3894E-12	243.868E-3	244.094E-3	149.784E-3	40.0474E-12	-1.16672E+0	25.5215E-3
232.283E-3	16.5074E-12	232.017E-3	232.283E-3	-34.1136E-3	39.9349E-12	-1.20174E+0	27.1404E-3
220.472E-3	15.6531E-12	220.189E-3	220.472E-3	-93.5858E-3	40.0340E-12	-1.24318E+0	24.5535E-3
208.661E-3	14.7188E-12	208.408E-3	208.661E-3	-14.0894E-3	39.9893E-12	-1.23449E+0	27.5565E-3
196.850E-3	13.9176E-12	196.578E-3	196.850E-3	119.358E-3	39.9926E-12	-1.18243E+0	27.0613E-3
185.039E-3	13.1642E-12	184.800E-3	185.039E-3	-109.939E-3	40.0059E-12	-1.25365E+0	24.5182E-3
173.228E-3	12.3286E-12	172.991E-3	173.228E-3	40.5742E-3	40.0039E-12	-1.21619E+0	24.3027E-3
161.417E-3	11.5187E-12	161.154E-3	161.417E-3	-1.04751E-3	39.9394E-12	-1.22437E+0	28.0304E-3
149.606E-3	10.6536E-12	149.320E-3	149.606E-3	13.5918E-3	40.0536E-12	-1.22686E+0	24.0455E-3
137.795E-3	9.66601E-12	137.536E-3	137.795E-3	-142.074E-3	39.9697E-12	-1.29361E+0	27.7966E-3
125.984E-3	8.92879E-12	125.773E-3	125.984E-3	37.3459E-3	40.0198E-12	-1.23762E+0	25.0058E-3
114.173E-3	7.88010E-12	113.945E-3	114.173E-3	-79.5788E-3	39.9944E-12	-1.27661E+0	24.2062E-3
102.362E-3	7.13695E-12	102.135E-3	102.362E-3	21.6366E-3	40.0090E-12	-1.24384E+0	26.3802E-3
90.5512E-3	6.29452E-12	90.3295E-3	90.5512E-3	-39.4303E-3	40.0604E-12	-1.27145E+0	24.6354E-3
78.7402E-3	5.50710E-12	78.4956E-3	78.7402E-3	-75.8788E-3	40.0011E-12	-1.29981E+0	27.0689E-3
66.9291E-3	4.62019E-12	66.6188E-3	66.9291E-3	7.44622E-3	40.0025E-12	-1.26832E+0	26.9176E-3
55.1181E-3	3.85806E-12	54.8512E-3	55.1181E-3	-46.2523E-3	40.0150E-12	-1.29788E+0	27.0225E-3
43.3071E-3	2.98048E-12	43.0320E-3	43.3071E-3	-25.1499E-3	39.9813E-12	-1.28654E+0	27.3178E-3
31.4961E-3	2.10606E-12	31.2064E-3	31.4961E-3	4.47709E-3	39.9955E-12	-1.28931E+0	26.6013E-3
19.6850E-3	1.29998E-12	19.4150E-3	19.6850E-3	-13.6407E-3	40.0253E-12	-1.30347E+0	24.7588E-3
7.87402E-3	460.244E-15	7.55652E-3	7.87402E-3	-6.77813E-3	40.0047E-12	-1.29753E+0	24.2592E-3
-3.93701E-3	-338.776E-15	-4.32828E-3	-3.93701E-3	34.1583E-3	39.8940E-12	-1.28951E+0	29.7616E-3
-15.7480E-3	-1.10808E-12	-16.1162E-3	-15.7480E-3	11.7229E-3	40.0559E-12	-1.29746E+0	24.3869E-3
-27.5591E-3	-1.94275E-12	-27.9287E-3	-27.5591E-3	-105.211E-3	39.9680E-12	-1.33149E+0	28.0242E-3
-39.3701E-3	-2.75489E-12	-39.7031E-3	-39.3701E-3	-146.409E-3	40.0582E-12	-1.37162E+0	25.7579E-3
-51.1811E-3	-3.56256E-12	-51.5572E-3	-51.1811E-3	63.7895E-3	40.0215E-12	-1.34834E+0	25.4058E-3
-62.9921E-3	-4.35439E-12	-63.3294E-3	-62.9921E-3	-44.1658E-3	39.9581E-12	-1.36229E+0	29.0039E-3
-74.8032E-3	-5.01404E-12	-75.1656E-3	-74.8032E-3	-144.435E-3	40.0208E-12	-1.40004E+0	28.9589E-3
-86.6142E-3	-5.42303E-12	-87.0144E-3	-86.6142E-3	-67.8607E-3	40.0455E-12	-1.42363E+0	26.0475E-3
-98.4252E-3	-5.71002E-12	-98.7841E-3	-98.4252E-3	34.1002E-3	40.0374E-12	-1.39653E+0	24.8674E-3
-110.236E-3	-6.08972E-12	-110.645E-3	-110.236E-3	-61.5241E-3	40.0520E-12	-1.43368E+0	26.2554E-3
-122.047E-3	-6.54502E-12	-122.395E-3	-122.047E-3	-55.7046E-3	40.0088E-12	-1.42814E+0	25.8457E-3
-133.858E-3	-6.87637E-12	-134.247E-3	-133.858E-3	-46.5454E-3	40.0600E-12	-1.43632E+0	23.4408E-3
-145.669E-3	-7.26725E-12	-146.043E-3	-145.669E-3	1.06607E-3	39.9703E-12	-1.42415E+0	25.9032E-3
-157.480E-3	-7.92950E-12	-157.820E-3	-157.480E-3	40.4548E-3	40.1115E-12	-1.41906E+0	23.9329E-3
-169.291E-3	-8.23939E-12	-169.693E-3	-169.291E-3	-1.66670E-3	39.9971E-12	-1.45846E+0	25.8185E-3
-181.102E-3	-8.63358E-12	-181.429E-3	-181.102E-3	-21.2583E-3	40.0558E-12	-1.46541E+0	26.0475E-3
-192.913E-3	-9.08142E-12	-193.243E-3	-192.913E-3	-25.0321E-3	40.0395E-12	-1.47905E+0	26.0750E-3
-204.724E-3	-9.48966E-12	-205.066E-3	-204.724E-3	93.6082E-3	40.0414E-12	-1.43426E+0	26.3265E-3
-216.535E-3	-9.83298E-12	-216.872E-3	-216.535E-3	-124.949E-3	40.0125E-12	-1.50938E+0	24.4389E-3
-228.346E-3	-10.3460E-12	-228.689E-3	-228.346E-3	15.1754E-3	40.0059E-12	-1.48482E+0	24.2866E-3
-240.157E-3	-10.7428E-12	-240.485E-3	-240.157E-3	105.753E-3	39.9527E-12	-1.46777E+0	26.6618E-3
-251.969E-3	-11.4309E-12	-252.311E-3	-251.969E-3	5.68013E-3	40.0408E-12	-1.49024E+0	25.3999E-3
-263.780E-3	-11.8160E-12	-264.072E-3	-263.780E-3	-28.9776E-3	39.9953E-12	-1.50574E+0	26.7098E-3
-275.591E-3	-12.3562E-12	-275.875E-3	-275.591E-3	104.091E-3	39.9510E-12	-1.48869E+0	29.6864E-3
-287.402E-3	-12.7993E-12	-287.717E-3	-287.402E-3	-150.800E-3	39.9853E-12	-1.57335E+0	26.4001E-3
-299.213E-3	-13.0355E-12	-299.511E-3	-299.213E-3	97.5986E-3	39.9179E-12	-1.52345E+0	29.7979E-3
-311.024E-3	-13.8195E-12	-311.345E-3	-311.024E-3	-119.845E-3	40.0771E-12	-1.60475E+0	24.7086E-3
-322.835E-3	-14.1347E-12	-323.135E-3	-322.835E-3	29.8090E-3	39.9735E-12	-1.57836E+0	27.2003E-3
-334.646E-3	-14.6351E-12	-334.912E-3	-334.646E-3	121.109E-3	39.9835E-12	-1.55528E+0	25.4031E-3
-346.457E-3	-15.1043E-12	-346.733E-3	-346.457E-3	-129.673E-3	40.0726E-12	-1.65811E+0	25.5714E-3
-358.268E-3	-15.3156E-12	-358.570E-3	-358.268E-3	-27.0102E-3	39.9853E-12	-1.64454E+0	25.9889E-3
-370.079E-3	-16.0514E-12	-370.371E-3	-370.079E-3	-22.5935E-3	40.0623E-12	-1.64582E+0	26.7677E-3
-381.890E-3	-16.2120E-12	-382.132E-3	-381.890E-3	-42.9284E-3	39.9713E-12	-1.64229E+0	26.3417E-3
-393.701E-3	-16.7550E-12	-394.004E-3	-393.701E-3	-34.4896E-3	40.0072E-12	-1.65719E+0	26.0303E-3
-405.512E-3	-17.0307E-12	-405.816E-3	-405.512E-3	-69.2283E-3	39.9550E-12	-1.68643E+0	29.1095E-3
-417.323E-3	-17.5586E-12	-417.619E-3	-417.323E-3	28.7522E-3	40.0422E-12	-1.67882E+0	24.5229E-3
-429.134E-3	-17.8899E-12	-429.423E-3	-429.134E-3	117.481E-3	40.0110E-12	-1.64888E+0	24.9653E-3
-440.945E-3	-18.6430E-12	-441.225E-3	-440.945E-3	-217.461E-3	39.9944E-12	-1.78869E+0	27.1480E-3
-452.756E-3	-19.1867E-12	-453.036E-3	-452.756E-3	68.5867E-3	39.9697E-12	-1.70945E+0	28.6270E-3
-464.567E-3	-19.8625E-12	-464.857E-3	-464.567E-3	-41.2435E-3	40.0162E-12	-1.75261E+0	27.0416E-3
-476.378E-3	-20.3387E-12	-476.686E-3	-476.378E-3	-94.9550E-3	40.0156E-12	-1.79556E+0	27.4817E-3
-488.189E-3	-20.8837E-12	-488.419E-3	-488.189E-3	135.626E-3	39.9567E-12	-1.72467E+0	25.6511E-3
-500.000E-3	-22.0190E-12	-500.259E-3	-500.000E-3	-140.363E-3	40.0176E-12	-1.81922E+0	27.4626E-3
