Experiment	bias spectroscopy	
Date	30.11.2015 16:15:37	
User		
X (m)	29.0794E-9	
Y (m)	-166.225E-9	
Z (m)	-3.75305E-9	
Z offset (m)	0E+0	
Settling time (s)	30E-3	
Integration time (s)	200E-3	
Z-Ctrl hold	TRUE	
Final Z (m)	-3.75305E-9	
Filter type	None	
Order		
Cutoff frq		
Current (A)	61.7106E-12	
Z (m)	-3.75305E-9	
Phase (deg)	359.742E-3	
Amplitude (m)	40.3856E-12	
Frequency Shift (Hz)	-398.457E-3	
Excitation (V)	23.8462E-3	

[DATA]
Bias calc (V)	Current (A)	Applied Voltage measured (V)	Bias (V)	Phase (deg)	Amplitude (m)	Frequency Shift (Hz)	Excitation (V)
1.00000E+0	61.4385E-12	999.339E-3	1.00000E+0	177.410E-3	39.9936E-12	-573.227E-3	26.0297E-3
988.189E-3	60.9088E-12	987.538E-3	988.189E-3	151.203E-3	40.0233E-12	-527.921E-3	26.1442E-3
976.378E-3	60.1784E-12	975.773E-3	976.378E-3	84.7907E-3	40.0435E-12	-525.640E-3	23.1645E-3
964.567E-3	59.5746E-12	963.907E-3	964.567E-3	127.507E-3	39.9237E-12	-521.533E-3	27.8226E-3
952.756E-3	58.5914E-12	952.157E-3	952.756E-3	-145.592E-3	39.9665E-12	-582.097E-3	25.4955E-3
940.945E-3	57.0939E-12	940.315E-3	940.945E-3	28.9763E-3	39.9668E-12	-551.530E-3	24.9424E-3
929.134E-3	56.9059E-12	928.501E-3	929.134E-3	7.56127E-3	40.0005E-12	-525.090E-3	27.0945E-3
917.323E-3	56.2189E-12	916.743E-3	917.323E-3	92.5979E-3	40.0595E-12	-499.907E-3	24.1408E-3
905.512E-3	55.1958E-12	904.882E-3	905.512E-3	-90.7402E-3	40.0333E-12	-545.319E-3	24.5499E-3
893.701E-3	54.3036E-12	893.130E-3	893.701E-3	-96.2367E-3	40.0200E-12	-576.718E-3	25.5364E-3
881.890E-3	53.1205E-12	881.287E-3	881.890E-3	7.69576E-3	39.9706E-12	-567.961E-3	24.5252E-3
870.079E-3	53.1495E-12	869.480E-3	870.079E-3	80.3073E-3	39.9581E-12	-522.506E-3	27.6043E-3
858.268E-3	52.1302E-12	857.660E-3	858.268E-3	67.6598E-3	39.9754E-12	-524.278E-3	26.6337E-3
846.457E-3	51.4713E-12	845.832E-3	846.457E-3	83.8550E-3	40.0590E-12	-495.937E-3	23.1064E-3
834.646E-3	50.6155E-12	834.049E-3	834.646E-3	-76.0510E-3	40.0254E-12	-539.801E-3	25.1807E-3
822.835E-3	49.7912E-12	822.235E-3	822.835E-3	22.7362E-3	40.0528E-12	-501.165E-3	23.3409E-3
811.024E-3	48.4001E-12	810.415E-3	811.024E-3	9.05297E-3	39.9666E-12	-508.602E-3	24.9152E-3
799.213E-3	48.3634E-12	798.642E-3	799.213E-3	78.7718E-3	40.0406E-12	-491.037E-3	24.0452E-3
787.402E-3	47.2507E-12	786.812E-3	787.402E-3	-85.9361E-3	39.9921E-12	-546.691E-3	22.7295E-3
775.591E-3	46.6567E-12	775.028E-3	775.591E-3	-20.5365E-3	39.9862E-12	-553.163E-3	28.1276E-3
763.780E-3	45.8424E-12	763.198E-3	763.780E-3	58.4455E-3	39.9818E-12	-533.855E-3	24.3201E-3
751.969E-3	45.0511E-12	751.422E-3	751.969E-3	-11.0398E-3	40.0255E-12	-531.283E-3	22.5455E-3
740.157E-3	44.6667E-12	739.615E-3	740.157E-3	57.4706E-3	40.0632E-12	-482.783E-3	22.2894E-3
728.346E-3	43.3541E-12	727.789E-3	728.346E-3	23.1310E-3	40.0384E-12	-505.440E-3	24.8590E-3
716.535E-3	42.5849E-12	715.992E-3	716.535E-3	39.2784E-3	39.9596E-12	-494.158E-3	25.5241E-3
704.724E-3	41.8847E-12	704.310E-3	704.724E-3	-161.467E-3	39.9917E-12	-570.845E-3	26.0171E-3
692.913E-3	41.3382E-12	692.505E-3	692.913E-3	-31.0156E-3	39.9729E-12	-542.526E-3	26.7052E-3
681.102E-3	40.5724E-12	680.730E-3	681.102E-3	202.763E-3	40.0553E-12	-462.668E-3	23.5442E-3
669.291E-3	39.7627E-12	668.919E-3	669.291E-3	41.6512E-3	39.9342E-12	-508.612E-3	25.2586E-3
657.480E-3	38.9681E-12	657.072E-3	657.480E-3	-62.3832E-3	40.0128E-12	-530.021E-3	27.3749E-3
645.669E-3	37.9814E-12	645.264E-3	645.669E-3	235.550E-3	39.9725E-12	-438.022E-3	23.9688E-3
633.858E-3	37.0323E-12	633.451E-3	633.858E-3	-237.570E-3	39.8930E-12	-562.800E-3	26.2870E-3
622.047E-3	36.5152E-12	621.648E-3	622.047E-3	-8.03565E-3	40.0489E-12	-500.903E-3	25.1576E-3
610.236E-3	35.8792E-12	609.893E-3	610.236E-3	91.2453E-3	40.0444E-12	-467.976E-3	22.9880E-3
598.425E-3	35.0075E-12	598.081E-3	598.425E-3	52.8320E-3	40.0468E-12	-474.473E-3	23.1235E-3
586.614E-3	34.0824E-12	586.270E-3	586.614E-3	-153.185E-3	39.9880E-12	-543.180E-3	25.7928E-3
574.803E-3	33.2003E-12	574.454E-3	574.803E-3	245.248E-3	39.9568E-12	-439.319E-3	25.7500E-3
562.992E-3	32.4323E-12	562.672E-3	562.992E-3	-118.713E-3	40.0410E-12	-542.693E-3	24.1242E-3
551.181E-3	32.2046E-12	550.870E-3	551.181E-3	110.002E-3	40.0484E-12	-490.096E-3	25.2431E-3
539.370E-3	31.1527E-12	539.001E-3	539.370E-3	123.408E-3	39.9332E-12	-484.127E-3	25.8172E-3
527.559E-3	30.5692E-12	527.219E-3	527.559E-3	-59.8617E-3	39.9645E-12	-516.948E-3	25.6493E-3
515.748E-3	29.3991E-12	515.387E-3	515.748E-3	480.656E-6	40.0387E-12	-508.009E-3	23.1021E-3
503.937E-3	29.1650E-12	503.593E-3	503.937E-3	-25.2944E-3	40.0740E-12	-519.938E-3	24.5417E-3
492.126E-3	28.1917E-12	491.769E-3	492.126E-3	71.5361E-3	40.0339E-12	-484.907E-3	25.5440E-3
480.315E-3	27.0756E-12	479.962E-3	480.315E-3	-13.3260E-3	39.9320E-12	-535.106E-3	28.7666E-3
468.504E-3	26.6817E-12	468.173E-3	468.504E-3	26.7119E-3	40.0668E-12	-531.316E-3	24.9579E-3
456.693E-3	26.0477E-12	456.359E-3	456.693E-3	38.5251E-3	39.9939E-12	-516.948E-3	25.6876E-3
444.882E-3	25.0909E-12	444.596E-3	444.882E-3	152.351E-3	40.0322E-12	-487.819E-3	25.4247E-3
433.071E-3	24.2340E-12	432.753E-3	433.071E-3	29.0291E-3	39.9991E-12	-531.172E-3	26.2423E-3
421.260E-3	23.6834E-12	420.952E-3	421.260E-3	48.3901E-3	40.0425E-12	-519.499E-3	24.1352E-3
409.449E-3	22.6832E-12	409.165E-3	409.449E-3	-14.4233E-3	40.0493E-12	-530.871E-3	23.1427E-3
397.638E-3	21.7804E-12	397.314E-3	397.638E-3	-150.704E-3	39.8964E-12	-562.630E-3	26.9905E-3
385.827E-3	21.2717E-12	385.565E-3	385.827E-3	17.1501E-3	40.0463E-12	-529.090E-3	25.7484E-3
374.016E-3	20.2516E-12	373.705E-3	374.016E-3	38.4760E-3	40.0120E-12	-516.225E-3	23.9784E-3
362.205E-3	20.0724E-12	361.911E-3	362.205E-3	-94.2091E-3	40.0142E-12	-569.392E-3	23.0901E-3
350.394E-3	19.0325E-12	350.171E-3	350.394E-3	33.4245E-3	39.9478E-12	-517.348E-3	27.9713E-3
338.583E-3	18.6276E-12	338.316E-3	338.583E-3	-67.7448E-3	40.0367E-12	-559.881E-3	21.9307E-3
326.772E-3	17.4746E-12	326.528E-3	326.772E-3	30.3433E-3	40.0150E-12	-540.847E-3	25.0995E-3
314.961E-3	17.0296E-12	314.692E-3	314.961E-3	16.4341E-3	39.9763E-12	-542.863E-3	26.1428E-3
303.150E-3	16.1618E-12	302.867E-3	303.150E-3	59.7743E-3	39.9952E-12	-530.807E-3	24.1068E-3
291.339E-3	15.3457E-12	291.123E-3	291.339E-3	35.9502E-3	39.9988E-12	-534.443E-3	26.7621E-3
279.528E-3	14.9449E-12	279.288E-3	279.528E-3	65.2887E-3	40.0577E-12	-516.996E-3	23.8335E-3
267.717E-3	14.0185E-12	267.476E-3	267.717E-3	-46.2065E-3	39.9461E-12	-543.300E-3	25.9151E-3
255.906E-3	13.4826E-12	255.653E-3	255.906E-3	-699.554E-6	39.9481E-12	-511.816E-3	26.4296E-3
244.094E-3	12.8048E-12	243.884E-3	244.094E-3	15.0195E-3	39.9754E-12	-519.348E-3	27.9094E-3
232.283E-3	12.2481E-12	232.029E-3	232.283E-3	-141.724E-3	40.0780E-12	-604.014E-3	25.3210E-3
220.472E-3	11.3162E-12	220.187E-3	220.472E-3	9.05704E-3	40.0108E-12	-572.834E-3	26.4720E-3
208.661E-3	10.6379E-12	208.416E-3	208.661E-3	71.3154E-3	39.9024E-12	-553.656E-3	26.1225E-3
196.850E-3	9.75166E-12	196.582E-3	196.850E-3	-67.6959E-3	40.0085E-12	-596.986E-3	24.2427E-3
185.039E-3	9.21547E-12	184.808E-3	185.039E-3	12.1403E-3	39.9662E-12	-570.922E-3	28.1938E-3
173.228E-3	8.61495E-12	172.999E-3	173.228E-3	20.2666E-3	40.0204E-12	-559.744E-3	28.2037E-3
161.417E-3	7.78531E-12	161.172E-3	161.417E-3	-160.588E-3	39.9518E-12	-629.191E-3	27.8786E-3
149.606E-3	7.20572E-12	149.350E-3	149.606E-3	-7.76262E-3	40.1116E-12	-607.230E-3	23.1941E-3
137.795E-3	6.45450E-12	137.554E-3	137.795E-3	162.307E-3	39.9258E-12	-542.819E-3	25.9922E-3
125.984E-3	5.88202E-12	125.785E-3	125.984E-3	1.72012E-3	40.0389E-12	-576.613E-3	24.9532E-3
114.173E-3	5.15773E-12	113.952E-3	114.173E-3	-91.7610E-3	39.9756E-12	-626.853E-3	28.3252E-3
102.362E-3	4.51510E-12	102.152E-3	102.362E-3	12.3501E-3	40.0190E-12	-605.083E-3	26.8662E-3
90.5512E-3	4.01344E-12	90.3466E-3	90.5512E-3	-24.1641E-3	39.9812E-12	-600.857E-3	26.5559E-3
78.7402E-3	3.43197E-12	78.5183E-3	78.7402E-3	-80.3707E-3	40.0535E-12	-638.233E-3	24.7111E-3
66.9291E-3	2.88731E-12	66.6385E-3	66.9291E-3	-29.4236E-3	40.0183E-12	-643.604E-3	23.2613E-3
55.1181E-3	2.37696E-12	54.8728E-3	55.1181E-3	17.5118E-3	40.0863E-12	-619.902E-3	24.0253E-3
43.3071E-3	1.77670E-12	43.0511E-3	43.3071E-3	2.11882E-3	39.9756E-12	-626.830E-3	24.6741E-3
31.4961E-3	1.26985E-12	31.2251E-3	31.4961E-3	-16.9778E-3	39.9729E-12	-614.799E-3	27.1642E-3
19.6850E-3	752.564E-15	19.4243E-3	19.6850E-3	-79.5916E-3	40.0683E-12	-661.991E-3	23.7665E-3
7.87402E-3	226.828E-15	7.56729E-3	7.87402E-3	-110.203E-3	40.0407E-12	-686.939E-3	26.0965E-3
-3.93701E-3	-276.535E-15	-4.31981E-3	-3.93701E-3	133.635E-3	40.0510E-12	-610.189E-3	24.8911E-3
-15.7480E-3	-785.746E-15	-16.1058E-3	-15.7480E-3	41.6138E-3	40.0216E-12	-624.566E-3	26.1149E-3
-27.5591E-3	-1.26861E-12	-27.9218E-3	-27.5591E-3	90.0473E-3	39.9479E-12	-617.085E-3	26.6699E-3
-39.3701E-3	-1.75468E-12	-39.6900E-3	-39.3701E-3	-87.8851E-3	40.0008E-12	-673.831E-3	26.9585E-3
-51.1811E-3	-2.19221E-12	-51.5403E-3	-51.1811E-3	30.8818E-3	40.0730E-12	-665.773E-3	25.1931E-3
-62.9921E-3	-2.55796E-12	-63.3123E-3	-62.9921E-3	-108.165E-3	40.0376E-12	-720.868E-3	25.2663E-3
-74.8032E-3	-2.84010E-12	-75.1437E-3	-74.8032E-3	86.5812E-3	39.9641E-12	-662.078E-3	28.8493E-3
-86.6142E-3	-3.04357E-12	-87.0050E-3	-86.6142E-3	-137.244E-3	40.0343E-12	-747.857E-3	24.9548E-3
-98.4252E-3	-3.23950E-12	-98.7793E-3	-98.4252E-3	41.2441E-3	40.0060E-12	-715.908E-3	22.0006E-3
-110.236E-3	-3.47760E-12	-110.635E-3	-110.236E-3	-2.33269E-3	39.9552E-12	-719.763E-3	30.4201E-3
-122.047E-3	-3.68147E-12	-122.382E-3	-122.047E-3	-175.079E-3	40.0307E-12	-781.645E-3	25.3649E-3
-133.858E-3	-3.84317E-12	-134.244E-3	-133.858E-3	40.7485E-3	39.9555E-12	-744.404E-3	24.8054E-3
-145.669E-3	-4.04825E-12	-146.032E-3	-145.669E-3	86.0917E-3	39.9957E-12	-706.908E-3	28.2210E-3
-157.480E-3	-4.30392E-12	-157.806E-3	-157.480E-3	-45.9990E-3	40.0167E-12	-751.632E-3	25.8396E-3
-169.291E-3	-4.51359E-12	-169.671E-3	-169.291E-3	-40.1095E-3	40.0185E-12	-762.920E-3	24.9120E-3
-181.102E-3	-4.68903E-12	-181.415E-3	-181.102E-3	-121.217E-3	40.0192E-12	-788.593E-3	28.1977E-3
-192.913E-3	-4.93903E-12	-193.233E-3	-192.913E-3	-69.2395E-3	40.0118E-12	-774.194E-3	27.1096E-3
-204.724E-3	-5.24917E-12	-205.057E-3	-204.724E-3	56.9045E-3	39.9955E-12	-736.962E-3	27.8113E-3
-216.535E-3	-5.47818E-12	-216.853E-3	-216.535E-3	-42.9568E-3	40.0025E-12	-769.052E-3	26.1837E-3
-228.346E-3	-5.67254E-12	-228.673E-3	-228.346E-3	-225.244E-3	40.0251E-12	-837.772E-3	27.9581E-3
-240.157E-3	-5.89770E-12	-240.474E-3	-240.157E-3	126.266E-3	39.9863E-12	-755.572E-3	25.3819E-3
-251.969E-3	-6.17398E-12	-252.288E-3	-251.969E-3	63.1155E-3	40.0140E-12	-764.891E-3	24.8051E-3
-263.780E-3	-6.40585E-12	-264.052E-3	-263.780E-3	-172.465E-3	40.0032E-12	-850.979E-3	27.1011E-3
-275.591E-3	-6.62892E-12	-275.866E-3	-275.591E-3	98.7257E-3	39.9916E-12	-772.312E-3	26.2156E-3
-287.402E-3	-6.96698E-12	-287.705E-3	-287.402E-3	-138.690E-3	39.9621E-12	-845.867E-3	29.7341E-3
-299.213E-3	-7.22087E-12	-299.501E-3	-299.213E-3	7.60190E-3	40.0134E-12	-848.636E-3	27.1519E-3
-311.024E-3	-7.52426E-12	-311.330E-3	-311.024E-3	-83.2023E-3	40.0431E-12	-863.131E-3	25.3931E-3
-322.835E-3	-7.71660E-12	-323.118E-3	-322.835E-3	27.5006E-3	40.0081E-12	-830.833E-3	23.5347E-3
-334.646E-3	-8.13102E-12	-334.900E-3	-334.646E-3	-3.85415E-3	39.9601E-12	-855.079E-3	28.2080E-3
-346.457E-3	-8.52409E-12	-346.718E-3	-346.457E-3	5.41093E-3	40.0639E-12	-869.561E-3	24.1275E-3
-358.268E-3	-8.68912E-12	-358.551E-3	-358.268E-3	-7.47452E-3	39.9761E-12	-865.921E-3	28.2589E-3
-370.079E-3	-9.07582E-12	-370.352E-3	-370.079E-3	-134.898E-3	40.0606E-12	-916.044E-3	24.1052E-3
-381.890E-3	-9.32596E-12	-382.130E-3	-381.890E-3	-44.3488E-3	40.0012E-12	-901.062E-3	28.1430E-3
-393.701E-3	-9.54381E-12	-393.999E-3	-393.701E-3	-137.608E-3	39.9776E-12	-952.861E-3	27.1559E-3
-405.512E-3	-9.88195E-12	-405.814E-3	-405.512E-3	15.8447E-3	39.9760E-12	-916.836E-3	30.7441E-3
-417.323E-3	-10.3644E-12	-417.620E-3	-417.323E-3	-39.6346E-3	40.1178E-12	-949.381E-3	22.1574E-3
-429.134E-3	-10.3310E-12	-429.423E-3	-429.134E-3	-30.0663E-3	39.9592E-12	-931.700E-3	26.7796E-3
-440.945E-3	-10.6774E-12	-441.231E-3	-440.945E-3	58.1340E-3	40.0034E-12	-928.505E-3	25.5539E-3
-452.756E-3	-11.0823E-12	-453.035E-3	-452.756E-3	-73.4310E-3	40.0073E-12	-993.099E-3	25.1338E-3
-464.567E-3	-11.1314E-12	-464.845E-3	-464.567E-3	-9.56301E-3	40.0170E-12	-998.907E-3	26.8942E-3
-476.378E-3	-11.2017E-12	-476.673E-3	-476.378E-3	52.6150E-3	39.9520E-12	-967.584E-3	27.9321E-3
-488.189E-3	-11.4777E-12	-488.409E-3	-488.189E-3	-100.807E-3	40.0112E-12	-1.03922E+0	29.2700E-3
-500.000E-3	-11.5328E-12	-500.247E-3	-500.000E-3	-146.299E-3	40.0164E-12	-1.07245E+0	25.1835E-3
