Experiment	bias spectroscopy	
Date	30.11.2015 21:35:12	
User		
X (m)	29.3129E-9	
Y (m)	-166.11E-9	
Z (m)	-3.75578E-9	
Z offset (m)	0E+0	
Settling time (s)	30E-3	
Integration time (s)	200E-3	
Z-Ctrl hold	TRUE	
Final Z (m)	-3.75578E-9	
Filter type	None	
Order		
Cutoff frq		
Current (A)	123.575E-12	
Z (m)	-3.75578E-9	
Phase (deg)	-896.105E-3	
Amplitude (m)	40.1602E-12	
Frequency Shift (Hz)	-772E-3	
Excitation (V)	10.557E-3	

[DATA]
Bias calc (V)	Current (A)	Applied Voltage measured (V)	Bias (V)	Phase (deg)	Amplitude (m)	Frequency Shift (Hz)	Excitation (V)
1.00000E+0	122.862E-12	999.329E-3	1.00000E+0	-326.980E-3	40.1779E-12	-590.591E-3	16.3787E-3
988.189E-3	121.647E-12	987.535E-3	988.189E-3	-75.8415E-3	39.9853E-12	-584.748E-3	21.0809E-3
976.378E-3	120.124E-12	975.768E-3	976.378E-3	275.166E-3	40.0206E-12	-420.058E-3	22.9092E-3
964.567E-3	118.534E-12	963.900E-3	964.567E-3	1.65282E-3	39.9646E-12	-525.440E-3	24.2423E-3
952.756E-3	117.685E-12	952.139E-3	952.756E-3	38.8762E-3	40.0160E-12	-484.925E-3	22.0535E-3
940.945E-3	116.094E-12	940.298E-3	940.945E-3	244.316E-3	40.0118E-12	-405.411E-3	21.2691E-3
929.134E-3	115.283E-12	928.482E-3	929.134E-3	67.3664E-3	39.9877E-12	-449.705E-3	20.7751E-3
917.323E-3	114.318E-12	916.732E-3	917.323E-3	-273.300E-3	40.0787E-12	-580.026E-3	19.3006E-3
905.512E-3	112.400E-12	904.864E-3	905.512E-3	120.546E-3	39.9550E-12	-508.627E-3	22.0999E-3
893.701E-3	111.421E-12	893.115E-3	893.701E-3	-57.6580E-3	40.0246E-12	-563.617E-3	21.7347E-3
881.890E-3	109.875E-12	881.274E-3	881.890E-3	92.9638E-3	39.9764E-12	-470.637E-3	20.5360E-3
870.079E-3	109.541E-12	869.474E-3	870.079E-3	-53.0591E-3	40.1027E-12	-561.620E-3	18.8466E-3
858.268E-3	108.259E-12	857.648E-3	858.268E-3	495.066E-3	39.9411E-12	-344.173E-3	25.1986E-3
846.457E-3	106.943E-12	845.812E-3	846.457E-3	-220.214E-3	39.9741E-12	-541.786E-3	23.7935E-3
834.646E-3	104.921E-12	834.049E-3	834.646E-3	109.199E-3	39.9385E-12	-421.422E-3	24.2265E-3
822.835E-3	103.845E-12	822.240E-3	822.835E-3	-38.3649E-3	39.9255E-12	-528.223E-3	22.3449E-3
811.024E-3	103.208E-12	810.406E-3	811.024E-3	86.1310E-3	39.9893E-12	-476.120E-3	23.7196E-3
799.213E-3	102.293E-12	798.641E-3	799.213E-3	26.2187E-3	39.9648E-12	-449.995E-3	21.5054E-3
787.402E-3	101.037E-12	786.809E-3	787.402E-3	-226.280E-3	40.0925E-12	-551.800E-3	19.1581E-3
775.591E-3	99.5646E-12	775.016E-3	775.591E-3	125.989E-3	39.9069E-12	-442.290E-3	25.4598E-3
763.780E-3	98.8803E-12	763.198E-3	763.780E-3	-157.000E-3	39.9774E-12	-526.322E-3	23.9481E-3
751.969E-3	97.4235E-12	751.420E-3	751.969E-3	-93.6396E-3	40.0501E-12	-546.655E-3	20.6360E-3
740.157E-3	95.9495E-12	739.625E-3	740.157E-3	249.509E-3	39.9971E-12	-408.881E-3	25.3466E-3
728.346E-3	95.4238E-12	727.792E-3	728.346E-3	48.0121E-3	40.1833E-12	-465.297E-3	20.3125E-3
716.535E-3	93.9277E-12	715.999E-3	716.535E-3	59.5857E-3	39.9418E-12	-452.387E-3	24.6465E-3
704.724E-3	92.8920E-12	704.309E-3	704.724E-3	6.03325E-3	39.9911E-12	-430.034E-3	24.6207E-3
692.913E-3	91.8899E-12	692.514E-3	692.913E-3	76.2948E-3	40.0515E-12	-398.134E-3	25.7293E-3
681.102E-3	89.7176E-12	680.736E-3	681.102E-3	-154.538E-3	39.8950E-12	-516.104E-3	24.2286E-3
669.291E-3	89.3056E-12	668.914E-3	669.291E-3	-72.2891E-3	40.0474E-12	-498.360E-3	20.2024E-3
657.480E-3	87.9149E-12	657.076E-3	657.480E-3	-148.785E-3	40.0150E-12	-537.086E-3	21.8670E-3
645.669E-3	85.7607E-12	645.266E-3	645.669E-3	119.281E-3	39.7874E-12	-473.006E-3	27.3964E-3
633.858E-3	85.9683E-12	633.455E-3	633.858E-3	-78.7629E-3	40.1041E-12	-507.240E-3	22.9548E-3
622.047E-3	84.5408E-12	621.652E-3	622.047E-3	-23.9828E-3	40.0365E-12	-497.370E-3	24.6781E-3
610.236E-3	82.8681E-12	609.887E-3	610.236E-3	4.50063E-3	40.0624E-12	-456.781E-3	24.7095E-3
598.425E-3	81.6196E-12	598.082E-3	598.425E-3	36.0035E-3	40.0221E-12	-471.208E-3	22.5437E-3
586.614E-3	80.6563E-12	586.278E-3	586.614E-3	139.187E-3	40.0076E-12	-407.651E-3	22.1443E-3
574.803E-3	79.0942E-12	574.454E-3	574.803E-3	-171.308E-3	39.9650E-12	-523.707E-3	23.6398E-3
562.992E-3	78.0841E-12	562.674E-3	562.992E-3	-9.17847E-3	40.0510E-12	-503.411E-3	23.5844E-3
551.181E-3	76.0603E-12	550.859E-3	551.181E-3	44.9950E-3	39.8872E-12	-456.158E-3	24.3963E-3
539.370E-3	75.8950E-12	538.985E-3	539.370E-3	-164.634E-3	40.1881E-12	-521.425E-3	20.0901E-3
527.559E-3	74.2525E-12	527.204E-3	527.559E-3	-7.17699E-3	40.0576E-12	-525.335E-3	20.3192E-3
515.748E-3	72.9453E-12	515.373E-3	515.748E-3	-30.5064E-3	39.9485E-12	-528.900E-3	24.3830E-3
503.937E-3	71.3343E-12	503.585E-3	503.937E-3	121.636E-3	40.0118E-12	-464.830E-3	21.9094E-3
492.126E-3	70.0319E-12	491.766E-3	492.126E-3	-189.355E-3	40.0030E-12	-543.100E-3	22.9364E-3
480.315E-3	68.4669E-12	479.950E-3	480.315E-3	13.6824E-3	39.9857E-12	-504.399E-3	24.7415E-3
468.504E-3	66.9129E-12	468.152E-3	468.504E-3	-81.5891E-3	40.0023E-12	-539.477E-3	24.3442E-3
456.693E-3	66.3343E-12	456.341E-3	456.693E-3	-63.2164E-3	40.1660E-12	-570.869E-3	19.7877E-3
444.882E-3	64.4707E-12	444.576E-3	444.882E-3	43.8664E-3	39.9359E-12	-531.829E-3	24.5529E-3
433.071E-3	63.0155E-12	432.741E-3	433.071E-3	1.60073E-3	40.0239E-12	-543.818E-3	21.9658E-3
421.260E-3	62.4125E-12	420.926E-3	421.260E-3	-87.8386E-3	40.0481E-12	-572.189E-3	19.7613E-3
409.449E-3	60.3174E-12	409.155E-3	409.449E-3	138.615E-3	40.0565E-12	-482.094E-3	21.2967E-3
397.638E-3	58.6237E-12	397.301E-3	397.638E-3	-173.639E-3	39.9621E-12	-569.411E-3	23.5173E-3
385.827E-3	57.1779E-12	385.548E-3	385.827E-3	90.8981E-3	39.9920E-12	-523.869E-3	22.6256E-3
374.016E-3	55.7237E-12	373.705E-3	374.016E-3	-43.4276E-3	40.0383E-12	-549.755E-3	27.2337E-3
362.205E-3	54.6926E-12	361.913E-3	362.205E-3	-32.5908E-3	40.1001E-12	-553.206E-3	21.7193E-3
350.394E-3	53.1653E-12	350.159E-3	350.394E-3	-96.6096E-3	40.0325E-12	-585.829E-3	25.2478E-3
338.583E-3	50.9712E-12	338.299E-3	338.583E-3	54.6741E-3	39.9185E-12	-544.791E-3	27.5447E-3
326.772E-3	50.2975E-12	326.513E-3	326.772E-3	-9.81991E-3	40.0680E-12	-585.834E-3	22.9781E-3
314.961E-3	47.8459E-12	314.678E-3	314.961E-3	66.7497E-3	39.9437E-12	-571.411E-3	25.1432E-3
303.150E-3	46.7192E-12	302.862E-3	303.150E-3	-136.350E-3	39.9696E-12	-640.044E-3	24.8478E-3
291.339E-3	45.0786E-12	291.109E-3	291.339E-3	-79.7046E-3	39.9713E-12	-635.499E-3	22.6121E-3
279.528E-3	43.2898E-12	279.277E-3	279.528E-3	230.305E-3	39.9876E-12	-550.044E-3	24.9977E-3
267.717E-3	41.8795E-12	267.461E-3	267.717E-3	42.7260E-3	39.9843E-12	-578.033E-3	25.3718E-3
255.906E-3	40.0052E-12	255.638E-3	255.906E-3	-34.1850E-3	39.9758E-12	-611.285E-3	26.6440E-3
244.094E-3	38.5183E-12	243.871E-3	244.094E-3	-149.649E-3	40.0287E-12	-658.730E-3	25.9019E-3
232.283E-3	36.3949E-12	232.020E-3	232.283E-3	-54.8026E-3	40.0420E-12	-665.872E-3	24.4024E-3
220.472E-3	34.5308E-12	220.185E-3	220.472E-3	24.3819E-3	39.9733E-12	-637.125E-3	23.1209E-3
208.661E-3	32.7993E-12	208.415E-3	208.661E-3	-28.6327E-3	39.9945E-12	-664.264E-3	27.3547E-3
196.850E-3	30.8609E-12	196.584E-3	196.850E-3	4.53141E-3	39.9680E-12	-652.905E-3	24.4610E-3
185.039E-3	29.0170E-12	184.808E-3	185.039E-3	99.1753E-3	40.0598E-12	-634.598E-3	26.5004E-3
173.228E-3	26.7712E-12	172.996E-3	173.228E-3	-117.893E-3	39.9302E-12	-694.062E-3	25.7308E-3
161.417E-3	24.8307E-12	161.162E-3	161.417E-3	84.9445E-3	39.9973E-12	-652.775E-3	24.5123E-3
149.606E-3	23.2032E-12	149.342E-3	149.606E-3	-108.490E-6	40.0753E-12	-671.231E-3	27.2672E-3
137.795E-3	20.8197E-12	137.547E-3	137.795E-3	-45.5826E-3	39.8777E-12	-701.410E-3	28.1828E-3
125.984E-3	18.9446E-12	125.778E-3	125.984E-3	-69.9789E-3	40.0907E-12	-723.917E-3	24.3448E-3
114.173E-3	16.7281E-12	113.949E-3	114.173E-3	22.2741E-3	39.9321E-12	-720.851E-3	28.0591E-3
102.362E-3	15.0175E-12	102.147E-3	102.362E-3	-41.7888E-6	40.0312E-12	-739.743E-3	28.5646E-3
90.5512E-3	13.2979E-12	90.3324E-3	90.5512E-3	-16.0716E-3	40.0182E-12	-733.319E-3	25.0317E-3
78.7402E-3	11.4334E-12	78.5030E-3	78.7402E-3	-37.1550E-3	39.9542E-12	-759.652E-3	24.5580E-3
66.9291E-3	9.59436E-12	66.6268E-3	66.9291E-3	-32.2824E-3	40.0202E-12	-775.531E-3	25.5960E-3
55.1181E-3	7.78818E-12	54.8505E-3	55.1181E-3	50.6992E-3	40.0079E-12	-758.976E-3	26.8929E-3
43.3071E-3	6.05043E-12	43.0354E-3	43.3071E-3	12.3861E-3	40.0443E-12	-765.190E-3	25.0042E-3
31.4961E-3	4.31084E-12	31.2109E-3	31.4961E-3	41.8507E-3	39.9872E-12	-768.772E-3	28.2703E-3
19.6850E-3	2.65935E-12	19.4080E-3	19.6850E-3	89.7875E-3	39.9855E-12	-743.006E-3	24.7516E-3
7.87402E-3	1.02402E-12	7.55334E-3	7.87402E-3	-354.062E-6	39.9923E-12	-775.415E-3	26.2099E-3
-3.93701E-3	-552.914E-15	-4.32864E-3	-3.93701E-3	33.4456E-3	39.9158E-12	-784.834E-3	30.1685E-3
-15.7480E-3	-2.34624E-12	-16.1132E-3	-15.7480E-3	28.7748E-3	40.0253E-12	-783.126E-3	26.9811E-3
-27.5591E-3	-4.09889E-12	-27.9216E-3	-27.5591E-3	-70.9740E-3	40.0839E-12	-842.794E-3	24.4804E-3
-39.3701E-3	-5.73118E-12	-39.6928E-3	-39.3701E-3	-89.3137E-3	40.0416E-12	-885.333E-3	27.2505E-3
-51.1811E-3	-7.09215E-12	-51.5448E-3	-51.1811E-3	25.0927E-3	40.0511E-12	-857.189E-3	22.9795E-3
-62.9921E-3	-8.50938E-12	-63.3144E-3	-62.9921E-3	-51.2150E-3	39.8958E-12	-905.734E-3	27.1386E-3
-74.8032E-3	-9.59443E-12	-75.1528E-3	-74.8032E-3	-17.8674E-3	40.0570E-12	-896.962E-3	26.4589E-3
-86.6142E-3	-10.4264E-12	-87.0121E-3	-86.6142E-3	21.5449E-3	40.0365E-12	-883.684E-3	26.1436E-3
-98.4252E-3	-11.0607E-12	-98.7779E-3	-98.4252E-3	32.6241E-3	39.9876E-12	-864.525E-3	26.4426E-3
-110.236E-3	-11.8044E-12	-110.633E-3	-110.236E-3	-120.502E-3	39.9360E-12	-912.636E-3	27.2292E-3
-122.047E-3	-12.5776E-12	-122.375E-3	-122.047E-3	-119.526E-3	39.9880E-12	-949.655E-3	25.6566E-3
-133.858E-3	-13.0593E-12	-134.226E-3	-133.858E-3	35.0309E-3	40.0274E-12	-924.861E-3	26.9715E-3
-145.669E-3	-13.6891E-12	-146.030E-3	-145.669E-3	13.0717E-3	40.0242E-12	-924.905E-3	27.1283E-3
-157.480E-3	-14.1679E-12	-157.810E-3	-157.480E-3	67.3790E-3	39.9356E-12	-909.117E-3	31.0532E-3
-169.291E-3	-14.6825E-12	-169.668E-3	-169.291E-3	-15.3780E-3	40.0226E-12	-917.087E-3	25.6522E-3
-181.102E-3	-15.6637E-12	-181.417E-3	-181.102E-3	-61.7698E-3	39.9607E-12	-940.764E-3	27.5183E-3
-192.913E-3	-16.1247E-12	-193.226E-3	-192.913E-3	-185.638E-3	40.0055E-12	-999.453E-3	26.5923E-3
-204.724E-3	-17.1680E-12	-205.066E-3	-204.724E-3	43.0252E-3	40.0343E-12	-926.184E-3	26.4162E-3
-216.535E-3	-17.7654E-12	-216.862E-3	-216.535E-3	-97.1247E-3	39.9372E-12	-982.206E-3	29.9165E-3
-228.346E-3	-18.5472E-12	-228.679E-3	-228.346E-3	-116.568E-3	39.9926E-12	-1.02508E+0	26.8395E-3
-240.157E-3	-19.5354E-12	-240.465E-3	-240.157E-3	48.7460E-3	39.9791E-12	-993.443E-3	27.1379E-3
-251.969E-3	-20.3773E-12	-252.297E-3	-251.969E-3	69.8126E-3	40.0366E-12	-988.917E-3	24.2512E-3
-263.780E-3	-20.9924E-12	-264.062E-3	-263.780E-3	44.1933E-3	39.9995E-12	-1.00230E+0	27.8100E-3
-275.591E-3	-21.7296E-12	-275.873E-3	-275.591E-3	51.3736E-3	40.0161E-12	-1.00880E+0	25.7284E-3
-287.402E-3	-22.4391E-12	-287.703E-3	-287.402E-3	-2.07268E-3	40.0302E-12	-1.01063E+0	22.4326E-3
-299.213E-3	-23.1337E-12	-299.493E-3	-299.213E-3	-133.389E-3	39.9650E-12	-1.07002E+0	26.7318E-3
-311.024E-3	-23.9007E-12	-311.324E-3	-311.024E-3	9.92748E-3	39.9812E-12	-1.04911E+0	28.6392E-3
-322.835E-3	-24.8991E-12	-323.121E-3	-322.835E-3	-3.93909E-3	40.0222E-12	-1.05234E+0	26.0425E-3
-334.646E-3	-25.5362E-12	-334.892E-3	-334.646E-3	-131.285E-3	39.9417E-12	-1.12048E+0	26.2089E-3
-346.457E-3	-26.3367E-12	-346.714E-3	-346.457E-3	76.6851E-3	40.0119E-12	-1.06955E+0	27.6985E-3
-358.268E-3	-27.3919E-12	-358.553E-3	-358.268E-3	76.2470E-3	40.0210E-12	-1.05747E+0	27.6179E-3
-370.079E-3	-27.9905E-12	-370.354E-3	-370.079E-3	-75.6805E-3	40.0081E-12	-1.13026E+0	25.4252E-3
-381.890E-3	-28.8501E-12	-382.123E-3	-381.890E-3	-352.702E-3	39.9320E-12	-1.25228E+0	29.9749E-3
-393.701E-3	-29.8786E-12	-393.991E-3	-393.701E-3	49.9781E-3	40.0502E-12	-1.16841E+0	28.8202E-3
-405.512E-3	-30.4930E-12	-405.796E-3	-405.512E-3	77.4843E-3	39.9719E-12	-1.15900E+0	29.0008E-3
-417.323E-3	-31.2657E-12	-417.586E-3	-417.323E-3	-80.0920E-3	39.9727E-12	-1.21158E+0	28.9190E-3
-429.134E-3	-32.4540E-12	-429.395E-3	-429.134E-3	-131.531E-3	39.9499E-12	-1.24755E+0	30.2545E-3
-440.945E-3	-33.0820E-12	-441.203E-3	-440.945E-3	-75.4158E-3	40.0536E-12	-1.25035E+0	26.6188E-3
-452.756E-3	-33.7689E-12	-453.012E-3	-452.756E-3	102.400E-3	40.0137E-12	-1.19573E+0	26.4970E-3
-464.567E-3	-34.1712E-12	-464.839E-3	-464.567E-3	-163.148E-3	39.8776E-12	-1.29907E+0	34.4370E-3
-476.378E-3	-35.1849E-12	-476.663E-3	-476.378E-3	36.8856E-3	40.0147E-12	-1.22861E+0	25.9751E-3
-488.189E-3	-34.9495E-12	-488.392E-3	-488.189E-3	-184.260E-3	39.8850E-12	-1.31456E+0	32.4065E-3
-500.000E-3	-36.2171E-12	-500.241E-3	-500.000E-3	-82.7223E-3	40.0827E-12	-1.31391E+0	27.1003E-3
