Experiment	bias spectroscopy	
Date	30.11.2015 20:26:47	
User		
X (m)	28.7647E-9	
Y (m)	-165.264E-9	
Z (m)	-3.75578E-9	
Z offset (m)	0E+0	
Settling time (s)	30E-3	
Integration time (s)	200E-3	
Z-Ctrl hold	TRUE	
Final Z (m)	-3.75578E-9	
Filter type	None	
Order		
Cutoff frq		
Current (A)	87.4834E-12	
Z (m)	-3.75578E-9	
Phase (deg)	-64.6636E-3	
Amplitude (m)	40.0146E-12	
Frequency Shift (Hz)	-616.468E-3	
Excitation (V)	23.9686E-3	

[DATA]
Bias calc (V)	Current (A)	Applied Voltage measured (V)	Bias (V)	Phase (deg)	Amplitude (m)	Frequency Shift (Hz)	Excitation (V)
1.00000E+0	88.0040E-12	999.343E-3	1.00000E+0	45.7059E-3	40.0009E-12	-616.188E-3	21.8709E-3
988.189E-3	87.3655E-12	987.545E-3	988.189E-3	-22.9107E-3	40.0106E-12	-614.604E-3	23.8641E-3
976.378E-3	87.0443E-12	975.785E-3	976.378E-3	73.8232E-3	40.0667E-12	-551.252E-3	24.0652E-3
964.567E-3	85.7959E-12	963.915E-3	964.567E-3	155.726E-3	39.9609E-12	-532.750E-3	25.0828E-3
952.756E-3	85.7379E-12	952.151E-3	952.756E-3	-169.412E-3	40.1411E-12	-631.979E-3	19.1905E-3
940.945E-3	84.3543E-12	940.317E-3	940.945E-3	222.806E-3	39.8878E-12	-532.077E-3	26.7150E-3
929.134E-3	82.8188E-12	928.484E-3	929.134E-3	-138.778E-3	39.9929E-12	-631.003E-3	23.2993E-3
917.323E-3	83.5006E-12	916.742E-3	917.323E-3	265.092E-3	40.0649E-12	-498.356E-3	23.1700E-3
905.512E-3	82.7355E-12	904.882E-3	905.512E-3	-10.7683E-3	40.1318E-12	-560.062E-3	22.0186E-3
893.701E-3	81.2854E-12	893.125E-3	893.701E-3	-133.712E-3	39.9442E-12	-617.323E-3	24.3478E-3
881.890E-3	81.1574E-12	881.284E-3	881.890E-3	-66.8530E-3	40.0734E-12	-590.710E-3	20.4376E-3
870.079E-3	80.1175E-12	869.477E-3	870.079E-3	-25.2313E-3	39.9711E-12	-584.341E-3	22.8585E-3
858.268E-3	79.2588E-12	857.652E-3	858.268E-3	378.096E-3	39.9891E-12	-477.811E-3	23.5542E-3
846.457E-3	78.5370E-12	845.822E-3	846.457E-3	-71.2501E-3	40.0034E-12	-565.885E-3	24.0254E-3
834.646E-3	77.6797E-12	834.048E-3	834.646E-3	147.232E-3	39.9198E-12	-492.035E-3	26.3299E-3
822.835E-3	77.0429E-12	822.240E-3	822.835E-3	-158.594E-3	40.1035E-12	-601.747E-3	18.5343E-3
811.024E-3	76.1411E-12	810.405E-3	811.024E-3	-54.7605E-3	40.0542E-12	-588.211E-3	20.7092E-3
799.213E-3	75.0084E-12	798.630E-3	799.213E-3	141.008E-3	40.0074E-12	-510.749E-3	24.7275E-3
787.402E-3	74.7517E-12	786.800E-3	787.402E-3	7.85145E-3	40.0015E-12	-560.990E-3	21.6641E-3
775.591E-3	74.3528E-12	775.011E-3	775.591E-3	-53.6563E-3	40.0245E-12	-572.095E-3	25.5632E-3
763.780E-3	73.3452E-12	763.182E-3	763.780E-3	-7.11503E-3	40.0151E-12	-542.391E-3	21.8700E-3
751.969E-3	72.5706E-12	751.408E-3	751.969E-3	128.438E-3	40.1001E-12	-515.526E-3	21.5372E-3
740.157E-3	71.7009E-12	739.604E-3	740.157E-3	-224.220E-3	40.0458E-12	-608.196E-3	20.0406E-3
728.346E-3	70.6016E-12	727.778E-3	728.346E-3	71.7601E-3	39.8875E-12	-530.465E-3	27.2380E-3
716.535E-3	70.2410E-12	715.991E-3	716.535E-3	15.2464E-3	40.0903E-12	-533.052E-3	22.1452E-3
704.724E-3	69.4497E-12	704.304E-3	704.724E-3	-69.4058E-3	40.0755E-12	-581.324E-3	20.5671E-3
692.913E-3	68.3981E-12	692.509E-3	692.913E-3	-19.7423E-3	39.9012E-12	-554.683E-3	24.6815E-3
681.102E-3	67.4893E-12	680.734E-3	681.102E-3	-4.50229E-3	40.0843E-12	-530.080E-3	20.9304E-3
669.291E-3	67.1423E-12	668.922E-3	669.291E-3	2.24037E-3	40.0690E-12	-535.361E-3	21.4900E-3
657.480E-3	65.5225E-12	657.078E-3	657.480E-3	-53.5869E-3	39.9300E-12	-520.026E-3	24.4040E-3
645.669E-3	64.8076E-12	645.267E-3	645.669E-3	-11.7660E-3	39.9543E-12	-541.267E-3	24.9845E-3
633.858E-3	63.8773E-12	633.464E-3	633.858E-3	-207.938E-3	40.0279E-12	-639.790E-3	20.9620E-3
622.047E-3	62.9970E-12	621.655E-3	622.047E-3	270.009E-3	40.0357E-12	-462.508E-3	24.1296E-3
610.236E-3	61.5766E-12	609.884E-3	610.236E-3	-58.9543E-3	40.0177E-12	-556.281E-3	20.8140E-3
598.425E-3	61.6207E-12	598.076E-3	598.425E-3	26.7532E-3	40.0061E-12	-516.238E-3	24.8430E-3
586.614E-3	60.1251E-12	586.269E-3	586.614E-3	-123.241E-3	40.0330E-12	-566.162E-3	19.6532E-3
574.803E-3	59.8337E-12	574.447E-3	574.803E-3	63.3451E-3	40.0478E-12	-498.320E-3	23.5570E-3
562.992E-3	57.7631E-12	562.664E-3	562.992E-3	31.4945E-3	39.9270E-12	-519.968E-3	25.1028E-3
551.181E-3	57.7082E-12	550.853E-3	551.181E-3	-160.740E-3	40.0559E-12	-563.921E-3	24.6422E-3
539.370E-3	56.3449E-12	538.989E-3	539.370E-3	-43.9310E-3	39.9403E-12	-562.142E-3	24.5275E-3
527.559E-3	55.8690E-12	527.208E-3	527.559E-3	79.8666E-3	40.0457E-12	-548.513E-3	22.1550E-3
515.748E-3	54.5926E-12	515.372E-3	515.748E-3	43.8966E-3	39.9063E-12	-555.493E-3	29.7797E-3
503.937E-3	54.4182E-12	503.589E-3	503.937E-3	-47.9641E-3	40.0866E-12	-568.478E-3	21.3659E-3
492.126E-3	53.0402E-12	491.762E-3	492.126E-3	62.3604E-3	40.1075E-12	-527.852E-3	24.0640E-3
480.315E-3	51.8784E-12	479.951E-3	480.315E-3	5.40226E-3	40.0256E-12	-541.888E-3	23.5607E-3
468.504E-3	50.6924E-12	468.170E-3	468.504E-3	-59.9493E-3	40.0325E-12	-570.252E-3	24.5560E-3
456.693E-3	49.7204E-12	456.349E-3	456.693E-3	-190.029E-3	39.9112E-12	-642.656E-3	25.6476E-3
444.882E-3	48.8268E-12	444.570E-3	444.882E-3	163.516E-3	39.9130E-12	-540.955E-3	26.9871E-3
433.071E-3	47.9878E-12	432.737E-3	433.071E-3	120.105E-3	40.1254E-12	-544.074E-3	24.9556E-3
421.260E-3	46.6212E-12	420.930E-3	421.260E-3	-34.8757E-3	40.0015E-12	-578.510E-3	24.2479E-3
409.449E-3	45.5868E-12	409.144E-3	409.449E-3	169.046E-3	39.9608E-12	-511.357E-3	27.0895E-3
397.638E-3	44.5832E-12	397.298E-3	397.638E-3	140.094E-3	40.0027E-12	-465.553E-3	27.2725E-3
385.827E-3	43.2080E-12	385.534E-3	385.827E-3	-146.196E-3	40.0339E-12	-574.204E-3	24.8042E-3
374.016E-3	42.2520E-12	373.693E-3	374.016E-3	11.9304E-3	40.0147E-12	-551.890E-3	24.7574E-3
362.205E-3	40.9626E-12	361.893E-3	362.205E-3	-107.446E-3	39.9586E-12	-594.158E-3	24.6677E-3
350.394E-3	39.9837E-12	350.143E-3	350.394E-3	-97.8332E-3	40.0335E-12	-622.385E-3	25.0456E-3
338.583E-3	39.0342E-12	338.286E-3	338.583E-3	42.6155E-3	40.0563E-12	-575.182E-3	23.3930E-3
326.772E-3	37.5589E-12	326.492E-3	326.772E-3	-16.4328E-3	39.9952E-12	-582.472E-3	24.5251E-3
314.961E-3	36.6554E-12	314.660E-3	314.961E-3	-136.720E-3	40.0666E-12	-660.599E-3	24.1204E-3
303.150E-3	35.4361E-12	302.842E-3	303.150E-3	55.1174E-3	40.0260E-12	-596.274E-3	27.2464E-3
291.339E-3	33.9706E-12	291.098E-3	291.339E-3	116.392E-3	40.0085E-12	-572.443E-3	26.8191E-3
279.528E-3	32.8198E-12	279.265E-3	279.528E-3	7.96960E-3	40.0013E-12	-579.625E-3	23.3365E-3
267.717E-3	31.3478E-12	267.461E-3	267.717E-3	-203.654E-3	39.9627E-12	-652.966E-3	26.7224E-3
255.906E-3	30.0233E-12	255.633E-3	255.906E-3	8.96956E-3	40.0751E-12	-612.115E-3	25.8491E-3
244.094E-3	28.8153E-12	243.850E-3	244.094E-3	-34.0881E-3	40.0188E-12	-648.240E-3	26.4576E-3
232.283E-3	27.2665E-12	232.003E-3	232.283E-3	47.1981E-3	39.9875E-12	-605.928E-3	24.8907E-3
220.472E-3	26.1209E-12	220.163E-3	220.472E-3	-125.414E-3	39.9585E-12	-669.516E-3	26.5294E-3
208.661E-3	24.5030E-12	208.383E-3	208.661E-3	70.0238E-3	40.0006E-12	-632.830E-3	25.8068E-3
196.850E-3	23.2383E-12	196.549E-3	196.850E-3	63.3060E-3	40.0201E-12	-621.964E-3	25.0911E-3
185.039E-3	21.8205E-12	184.776E-3	185.039E-3	39.0295E-3	39.9599E-12	-635.824E-3	24.2962E-3
173.228E-3	19.9603E-12	172.969E-3	173.228E-3	-181.696E-3	40.0049E-12	-719.211E-3	24.4435E-3
161.417E-3	18.8328E-12	161.142E-3	161.417E-3	25.3101E-3	39.9862E-12	-674.835E-3	27.0329E-3
149.606E-3	17.2371E-12	149.316E-3	149.606E-3	50.3978E-3	40.0048E-12	-686.948E-3	27.9770E-3
137.795E-3	15.7041E-12	137.520E-3	137.795E-3	88.7484E-3	40.0108E-12	-668.206E-3	25.6724E-3
125.984E-3	14.2989E-12	125.764E-3	125.984E-3	-6.85448E-3	40.0191E-12	-707.487E-3	24.9522E-3
114.173E-3	12.9870E-12	113.930E-3	114.173E-3	109.929E-3	40.0433E-12	-677.576E-3	23.9731E-3
102.362E-3	11.6936E-12	102.133E-3	102.362E-3	-160.833E-3	40.0961E-12	-766.586E-3	26.7223E-3
90.5512E-3	10.2130E-12	90.3222E-3	90.5512E-3	73.4031E-3	39.9851E-12	-714.987E-3	25.6634E-3
78.7402E-3	8.70719E-12	78.4895E-3	78.7402E-3	-16.9867E-3	39.9978E-12	-729.496E-3	28.3474E-3
66.9291E-3	7.41837E-12	66.6155E-3	66.9291E-3	56.9313E-3	39.9878E-12	-731.718E-3	25.1946E-3
55.1181E-3	6.04643E-12	54.8336E-3	55.1181E-3	176.149E-3	40.0409E-12	-688.906E-3	24.4707E-3
43.3071E-3	4.65496E-12	43.0184E-3	43.3071E-3	18.5938E-3	40.0258E-12	-721.448E-3	23.7946E-3
31.4961E-3	3.29495E-12	31.1964E-3	31.4961E-3	-112.486E-3	39.9781E-12	-788.913E-3	25.3220E-3
19.6850E-3	1.99428E-12	19.3967E-3	19.6850E-3	-10.5787E-3	39.9697E-12	-770.722E-3	26.2486E-3
7.87402E-3	736.024E-15	7.53749E-3	7.87402E-3	-81.8660E-3	40.0589E-12	-802.557E-3	27.8094E-3
-3.93701E-3	-445.496E-15	-4.34739E-3	-3.93701E-3	33.9269E-3	40.0444E-12	-792.856E-3	25.3971E-3
-15.7480E-3	-1.67796E-12	-16.1261E-3	-15.7480E-3	84.8855E-3	39.9832E-12	-758.864E-3	27.8478E-3
-27.5591E-3	-2.83690E-12	-27.9374E-3	-27.5591E-3	-105.349E-3	40.0179E-12	-862.437E-3	26.5924E-3
-39.3701E-3	-4.02380E-12	-39.7034E-3	-39.3701E-3	191.947E-3	40.0659E-12	-771.600E-3	25.5436E-3
-51.1811E-3	-5.10709E-12	-51.5579E-3	-51.1811E-3	-48.0270E-3	40.0053E-12	-832.715E-3	25.5026E-3
-62.9921E-3	-6.21782E-12	-63.3377E-3	-62.9921E-3	77.4277E-3	40.0557E-12	-800.643E-3	24.3783E-3
-74.8032E-3	-7.00722E-12	-75.1749E-3	-74.8032E-3	-36.5517E-3	39.9933E-12	-848.456E-3	28.6256E-3
-86.6142E-3	-7.62720E-12	-87.0343E-3	-86.6142E-3	-46.5547E-3	40.0670E-12	-855.713E-3	26.0743E-3
-98.4252E-3	-8.10615E-12	-98.8040E-3	-98.4252E-3	-79.3756E-3	39.9765E-12	-881.135E-3	27.1015E-3
-110.236E-3	-8.73022E-12	-110.661E-3	-110.236E-3	144.390E-3	39.9754E-12	-827.119E-3	29.6047E-3
-122.047E-3	-9.26738E-12	-122.408E-3	-122.047E-3	-1.71080E-3	39.9800E-12	-831.584E-3	25.9974E-3
-133.858E-3	-9.73484E-12	-134.264E-3	-133.858E-3	-112.082E-3	40.0292E-12	-870.220E-3	26.3510E-3
-145.669E-3	-10.1126E-12	-146.070E-3	-145.669E-3	-153.085E-3	39.9971E-12	-910.713E-3	27.4504E-3
-157.480E-3	-10.6642E-12	-157.837E-3	-157.480E-3	-49.5065E-3	39.9628E-12	-912.268E-3	26.4254E-3
-169.291E-3	-11.1265E-12	-169.712E-3	-169.291E-3	3.10680E-3	40.0009E-12	-906.268E-3	29.6674E-3
-181.102E-3	-11.7641E-12	-181.453E-3	-181.102E-3	-49.8105E-3	40.0422E-12	-935.171E-3	25.4881E-3
-192.913E-3	-12.1742E-12	-193.260E-3	-192.913E-3	-128.733E-6	39.9680E-12	-914.778E-3	28.3132E-3
-204.724E-3	-12.7533E-12	-205.085E-3	-204.724E-3	38.8564E-3	40.0469E-12	-886.729E-3	27.1132E-3
-216.535E-3	-13.4326E-12	-216.893E-3	-216.535E-3	-18.2835E-3	39.9675E-12	-915.000E-3	25.0258E-3
-228.346E-3	-13.9750E-12	-228.711E-3	-228.346E-3	-100.210E-3	40.0250E-12	-946.482E-3	28.2080E-3
-240.157E-3	-14.5822E-12	-240.514E-3	-240.157E-3	-119.655E-3	39.9448E-12	-966.379E-3	28.6387E-3
-251.969E-3	-15.4485E-12	-252.334E-3	-251.969E-3	-1.57819E-3	40.0149E-12	-982.517E-3	29.1092E-3
-263.780E-3	-15.7671E-12	-264.100E-3	-263.780E-3	8.74405E-3	39.9395E-12	-969.076E-3	27.0688E-3
-275.591E-3	-16.2820E-12	-275.909E-3	-275.591E-3	86.1458E-3	39.9629E-12	-942.532E-3	26.6866E-3
-287.402E-3	-17.0434E-12	-287.753E-3	-287.402E-3	11.2688E-3	40.0450E-12	-965.774E-3	27.1764E-3
-299.213E-3	-17.9086E-12	-299.539E-3	-299.213E-3	45.5584E-3	40.0281E-12	-975.028E-3	25.6954E-3
-311.024E-3	-18.2285E-12	-311.366E-3	-311.024E-3	-185.478E-3	39.9839E-12	-1.08420E+0	27.3437E-3
-322.835E-3	-19.1571E-12	-323.157E-3	-322.835E-3	-2.33511E-3	40.0047E-12	-1.06686E+0	27.0950E-3
-334.646E-3	-19.8090E-12	-334.930E-3	-334.646E-3	-13.2788E-3	40.0264E-12	-1.06001E+0	27.1471E-3
-346.457E-3	-20.5796E-12	-346.747E-3	-346.457E-3	-80.4518E-3	39.9810E-12	-1.09135E+0	27.1997E-3
-358.268E-3	-21.0723E-12	-358.593E-3	-358.268E-3	91.5056E-3	39.9973E-12	-1.04606E+0	25.3832E-3
-370.079E-3	-21.8821E-12	-370.384E-3	-370.079E-3	-24.3877E-3	39.9302E-12	-1.08737E+0	27.4382E-3
-381.890E-3	-22.5502E-12	-382.161E-3	-381.890E-3	65.8127E-3	39.9723E-12	-1.06497E+0	27.1585E-3
-393.701E-3	-23.0433E-12	-394.030E-3	-393.701E-3	-215.850E-3	40.0248E-12	-1.15076E+0	27.4368E-3
-405.512E-3	-23.4082E-12	-405.839E-3	-405.512E-3	-41.2556E-3	39.9504E-12	-1.12782E+0	28.5126E-3
-417.323E-3	-24.0583E-12	-417.637E-3	-417.323E-3	101.686E-3	40.0426E-12	-1.11609E+0	29.0195E-3
-429.134E-3	-24.7724E-12	-429.443E-3	-429.134E-3	-18.5441E-3	39.9696E-12	-1.14194E+0	29.7830E-3
-440.945E-3	-25.4197E-12	-441.248E-3	-440.945E-3	-118.234E-3	39.9571E-12	-1.19060E+0	29.0755E-3
-452.756E-3	-26.2923E-12	-453.051E-3	-452.756E-3	-39.5557E-3	40.0236E-12	-1.17793E+0	30.6797E-3
-464.567E-3	-26.2912E-12	-464.875E-3	-464.567E-3	107.679E-3	39.9985E-12	-1.12812E+0	26.9715E-3
-476.378E-3	-26.5957E-12	-476.709E-3	-476.378E-3	44.6795E-3	39.9036E-12	-1.15384E+0	30.3504E-3
-488.189E-3	-27.2558E-12	-488.440E-3	-488.189E-3	-265.691E-3	39.9788E-12	-1.27115E+0	28.0076E-3
-500.000E-3	-27.6547E-12	-500.286E-3	-500.000E-3	-37.0174E-3	39.9962E-12	-1.24059E+0	28.9660E-3
