Experiment	bias spectroscopy	
Date	01.12.2015 04:01:20	
User		
X (m)	280.951E-9	
Y (m)	-138.594E-9	
Z (m)	-4.07703E-9	
Z offset (m)	0E+0	
Settling time (s)	30E-3	
Integration time (s)	200E-3	
Z-Ctrl hold	TRUE	
Final Z (m)	-4.07703E-9	
Filter type	None	
Order		
Cutoff frq		
Current (A)	64.646E-12	
Z (m)	-4.07703E-9	
Phase (deg)	294.526E-3	
Amplitude (m)	39.8997E-12	
Frequency Shift (Hz)	-936.607E-3	
Excitation (V)	30.121E-3	

[DATA]
Bias calc (V)	Current (A)	Applied Voltage measured (V)	Bias (V)	Phase (deg)	Amplitude (m)	Frequency Shift (Hz)	Excitation (V)
1.00000E+0	65.4968E-12	999.346E-3	1.00000E+0	-64.1796E-3	39.9964E-12	-1.05268E+0	24.9309E-3
988.189E-3	64.6369E-12	987.546E-3	988.189E-3	-26.3704E-3	40.0026E-12	-1.05261E+0	24.1438E-3
976.378E-3	63.6794E-12	975.785E-3	976.378E-3	-122.980E-3	39.9638E-12	-1.07021E+0	23.5959E-3
964.567E-3	62.7937E-12	963.922E-3	964.567E-3	313.266E-3	39.8184E-12	-919.667E-3	30.3260E-3
952.756E-3	62.2199E-12	952.163E-3	952.756E-3	-54.6232E-3	40.1131E-12	-1.00330E+0	24.9425E-3
940.945E-3	62.0656E-12	940.327E-3	940.945E-3	-163.137E-3	40.0897E-12	-1.07421E+0	22.7129E-3
929.134E-3	60.6040E-12	928.503E-3	929.134E-3	4.86957E-3	39.9354E-12	-1.03975E+0	24.5593E-3
917.323E-3	59.8307E-12	916.752E-3	917.323E-3	-85.8667E-3	40.0069E-12	-1.06238E+0	21.9070E-3
905.512E-3	59.2532E-12	904.891E-3	905.512E-3	44.6085E-3	40.0174E-12	-1.02076E+0	25.0521E-3
893.701E-3	58.3554E-12	893.141E-3	893.701E-3	79.1287E-3	39.9938E-12	-976.944E-3	26.5675E-3
881.890E-3	57.8858E-12	881.298E-3	881.890E-3	111.060E-3	40.0178E-12	-949.162E-3	25.4953E-3
870.079E-3	56.6863E-12	869.500E-3	870.079E-3	-220.025E-3	39.9788E-12	-1.06396E+0	25.7408E-3
858.268E-3	56.4326E-12	857.674E-3	858.268E-3	67.7024E-3	40.0056E-12	-982.222E-3	22.6840E-3
846.457E-3	55.5599E-12	845.846E-3	846.457E-3	-43.4597E-3	40.0573E-12	-996.720E-3	23.9077E-3
834.646E-3	55.3923E-12	834.069E-3	834.646E-3	-70.3081E-3	40.0761E-12	-1.01920E+0	21.5810E-3
822.835E-3	54.2672E-12	822.261E-3	822.835E-3	117.510E-3	39.9964E-12	-955.566E-3	24.6910E-3
811.024E-3	53.6065E-12	810.436E-3	811.024E-3	143.213E-3	40.1062E-12	-945.595E-3	23.0287E-3
799.213E-3	52.5707E-12	798.670E-3	799.213E-3	-49.3613E-3	40.0128E-12	-989.375E-3	24.1111E-3
787.402E-3	52.0521E-12	786.836E-3	787.402E-3	6.93908E-3	39.9696E-12	-979.994E-3	24.4730E-3
775.591E-3	51.3037E-12	775.039E-3	775.591E-3	-46.3677E-3	39.9575E-12	-996.102E-3	28.0888E-3
763.780E-3	50.3501E-12	763.214E-3	763.780E-3	27.7220E-3	40.0321E-12	-986.692E-3	23.1368E-3
751.969E-3	49.7039E-12	751.442E-3	751.969E-3	-49.6303E-3	39.9511E-12	-982.267E-3	23.9822E-3
740.157E-3	49.5985E-12	739.642E-3	740.157E-3	77.9779E-3	40.0895E-12	-954.499E-3	21.2403E-3
728.346E-3	48.3188E-12	727.803E-3	728.346E-3	-20.2004E-3	39.8924E-12	-991.156E-3	30.6004E-3
716.535E-3	47.6505E-12	716.008E-3	716.535E-3	128.657E-3	40.0199E-12	-901.815E-3	27.1089E-3
704.724E-3	47.2244E-12	704.324E-3	704.724E-3	43.2226E-3	40.0429E-12	-916.466E-3	28.2769E-3
692.913E-3	45.6790E-12	692.526E-3	692.913E-3	7.04841E-3	39.9993E-12	-932.220E-3	25.3484E-3
681.102E-3	44.7394E-12	680.757E-3	681.102E-3	-79.5646E-3	39.9920E-12	-979.045E-3	24.7451E-3
669.291E-3	44.5355E-12	668.932E-3	669.291E-3	-119.457E-3	39.9747E-12	-1.01085E+0	22.7581E-3
657.480E-3	43.5903E-12	657.095E-3	657.480E-3	246.053E-3	39.9666E-12	-910.912E-3	27.2103E-3
645.669E-3	42.8568E-12	645.284E-3	645.669E-3	19.1741E-3	39.9330E-12	-961.715E-3	27.8022E-3
633.858E-3	41.6416E-12	633.482E-3	633.858E-3	28.1571E-3	39.9792E-12	-954.777E-3	25.3366E-3
622.047E-3	41.4040E-12	621.672E-3	622.047E-3	63.2210E-3	40.0044E-12	-959.502E-3	25.6423E-3
610.236E-3	40.6808E-12	609.914E-3	610.236E-3	-117.663E-3	40.0145E-12	-999.080E-3	24.4116E-3
598.425E-3	39.8159E-12	598.104E-3	598.425E-3	74.2925E-3	40.0209E-12	-965.909E-3	24.9951E-3
586.614E-3	39.1036E-12	586.296E-3	586.614E-3	87.4106E-3	40.0204E-12	-936.342E-3	24.2006E-3
574.803E-3	38.2531E-12	574.470E-3	574.803E-3	-4.40400E-3	39.9857E-12	-937.253E-3	25.7501E-3
562.992E-3	37.4425E-12	562.695E-3	562.992E-3	43.1023E-3	39.9995E-12	-926.149E-3	24.1901E-3
551.181E-3	36.4129E-12	550.883E-3	551.181E-3	-57.9916E-3	39.9054E-12	-964.857E-3	25.9781E-3
539.370E-3	36.1410E-12	539.018E-3	539.370E-3	7.30958E-3	39.9889E-12	-969.440E-3	25.6315E-3
527.559E-3	35.0928E-12	527.232E-3	527.559E-3	-198.828E-3	40.0477E-12	-1.02426E+0	23.3517E-3
515.748E-3	34.3388E-12	515.396E-3	515.748E-3	67.4941E-3	40.0645E-12	-945.145E-3	23.7063E-3
503.937E-3	33.7485E-12	503.604E-3	503.937E-3	71.2483E-3	40.0104E-12	-927.708E-3	25.2778E-3
492.126E-3	32.6347E-12	491.775E-3	492.126E-3	-43.7983E-3	39.9511E-12	-958.753E-3	24.2884E-3
480.315E-3	31.8224E-12	479.971E-3	480.315E-3	-58.4925E-3	39.9791E-12	-983.010E-3	28.5197E-3
468.504E-3	31.0287E-12	468.178E-3	468.504E-3	131.238E-3	40.0261E-12	-928.155E-3	25.8876E-3
456.693E-3	30.2899E-12	456.364E-3	456.693E-3	-16.9529E-3	40.0589E-12	-949.822E-3	25.1955E-3
444.882E-3	29.3292E-12	444.595E-3	444.882E-3	46.2216E-3	40.0573E-12	-935.825E-3	22.5316E-3
433.071E-3	28.3576E-12	432.759E-3	433.071E-3	27.3755E-3	40.0226E-12	-934.163E-3	21.7903E-3
421.260E-3	27.3406E-12	420.950E-3	421.260E-3	7.39787E-3	39.8916E-12	-982.479E-3	27.9567E-3
409.449E-3	26.7904E-12	409.170E-3	409.449E-3	-77.6342E-3	40.0403E-12	-1.00287E+0	24.5436E-3
397.638E-3	26.0463E-12	397.325E-3	397.638E-3	18.3358E-3	40.0011E-12	-982.565E-3	25.5460E-3
385.827E-3	24.9818E-12	385.562E-3	385.827E-3	22.7101E-3	39.9027E-12	-985.885E-3	27.5865E-3
374.016E-3	24.6448E-12	373.727E-3	374.016E-3	23.4624E-3	39.9756E-12	-985.895E-3	28.0325E-3
362.205E-3	23.6757E-12	361.934E-3	362.205E-3	-75.5347E-3	39.9663E-12	-1.01573E+0	26.1207E-3
350.394E-3	23.0345E-12	350.180E-3	350.394E-3	69.3873E-3	40.0204E-12	-960.013E-3	24.3098E-3
338.583E-3	22.1358E-12	338.318E-3	338.583E-3	-698.644E-6	40.0422E-12	-979.434E-3	24.7595E-3
326.772E-3	21.1199E-12	326.529E-3	326.772E-3	13.4041E-3	39.9612E-12	-984.992E-3	26.5486E-3
314.961E-3	20.4423E-12	314.690E-3	314.961E-3	-86.1496E-3	40.0723E-12	-1.01730E+0	24.6556E-3
303.150E-3	19.6622E-12	302.864E-3	303.150E-3	-69.4440E-3	39.9815E-12	-1.02991E+0	25.0397E-3
291.339E-3	18.8891E-12	291.121E-3	291.339E-3	28.3077E-3	39.9811E-12	-994.005E-3	25.5005E-3
279.528E-3	18.1985E-12	279.297E-3	279.528E-3	47.1447E-3	40.0369E-12	-997.414E-3	23.6536E-3
267.717E-3	17.1944E-12	267.487E-3	267.717E-3	3.89537E-3	39.9168E-12	-999.322E-3	28.1298E-3
255.906E-3	16.5173E-12	255.658E-3	255.906E-3	-121.253E-3	40.0709E-12	-1.03653E+0	24.3324E-3
244.094E-3	15.6340E-12	243.883E-3	244.094E-3	-62.3924E-3	39.9561E-12	-1.03099E+0	26.8834E-3
232.283E-3	14.9256E-12	232.030E-3	232.283E-3	18.3698E-3	39.9849E-12	-1.00303E+0	25.5204E-3
220.472E-3	14.2573E-12	220.205E-3	220.472E-3	-41.6384E-3	40.0680E-12	-1.02968E+0	24.9324E-3
208.661E-3	13.3567E-12	208.422E-3	208.661E-3	-97.0836E-3	39.9664E-12	-1.06999E+0	24.9545E-3
196.850E-3	12.6925E-12	196.591E-3	196.850E-3	34.9074E-3	40.0007E-12	-1.02520E+0	24.1898E-3
185.039E-3	11.9804E-12	184.822E-3	185.039E-3	-30.5403E-3	40.0270E-12	-1.04604E+0	23.1837E-3
173.228E-3	11.1634E-12	173.005E-3	173.228E-3	-3.38150E-3	39.9624E-12	-1.05479E+0	25.7307E-3
161.417E-3	10.4576E-12	161.172E-3	161.417E-3	119.595E-3	39.9683E-12	-1.01895E+0	26.2168E-3
149.606E-3	9.63522E-12	149.351E-3	149.606E-3	-24.1065E-3	40.0505E-12	-1.06197E+0	24.6284E-3
137.795E-3	8.75522E-12	137.566E-3	137.795E-3	280.085E-6	39.9361E-12	-1.05479E+0	23.1675E-3
125.984E-3	8.04383E-12	125.803E-3	125.984E-3	-147.404E-3	40.0740E-12	-1.10278E+0	20.2671E-3
114.173E-3	7.13885E-12	113.965E-3	114.173E-3	-1.63021E-3	40.0063E-12	-1.09421E+0	26.2222E-3
102.362E-3	6.39214E-12	102.152E-3	102.362E-3	-174.804E-3	39.9739E-12	-1.15558E+0	28.0703E-3
90.5512E-3	5.66204E-12	90.3408E-3	90.5512E-3	91.5269E-3	40.0344E-12	-1.06739E+0	25.8758E-3
78.7402E-3	4.93337E-12	78.5036E-3	78.7402E-3	91.5949E-3	40.0233E-12	-1.07624E+0	28.0826E-3
66.9291E-3	4.23991E-12	66.6377E-3	66.9291E-3	-9.63262E-3	40.0404E-12	-1.09756E+0	22.5369E-3
55.1181E-3	3.43731E-12	54.8587E-3	55.1181E-3	-61.5595E-3	39.9793E-12	-1.12961E+0	25.1651E-3
43.3071E-3	2.70251E-12	43.0461E-3	43.3071E-3	46.0370E-3	40.0072E-12	-1.09428E+0	25.2396E-3
31.4961E-3	1.92665E-12	31.2189E-3	31.4961E-3	-75.7452E-3	40.0807E-12	-1.13754E+0	22.0545E-3
19.6850E-3	1.16794E-12	19.4173E-3	19.6850E-3	27.6595E-3	39.9504E-12	-1.08696E+0	26.7618E-3
7.87402E-3	420.582E-15	7.56444E-3	7.87402E-3	34.0517E-3	40.0178E-12	-1.10016E+0	26.3158E-3
-3.93701E-3	-345.746E-15	-4.32672E-3	-3.93701E-3	96.2664E-3	40.0271E-12	-1.07631E+0	23.2142E-3
-15.7480E-3	-1.11564E-12	-16.1053E-3	-15.7480E-3	-62.3975E-3	40.0403E-12	-1.13876E+0	21.0682E-3
-27.5591E-3	-1.82387E-12	-27.9197E-3	-27.5591E-3	95.8243E-3	39.9540E-12	-1.11666E+0	25.4576E-3
-39.3701E-3	-2.52371E-12	-39.6955E-3	-39.3701E-3	-93.5180E-3	39.9887E-12	-1.17297E+0	30.4326E-3
-51.1811E-3	-3.31273E-12	-51.5504E-3	-51.1811E-3	-138.936E-3	40.0484E-12	-1.21726E+0	26.6347E-3
-62.9921E-3	-4.03998E-12	-63.3190E-3	-62.9921E-3	-107.662E-3	40.0542E-12	-1.24448E+0	24.8431E-3
-74.8032E-3	-4.54947E-12	-75.1599E-3	-74.8032E-3	28.3882E-3	40.0303E-12	-1.19969E+0	25.4863E-3
-86.6142E-3	-4.89124E-12	-87.0096E-3	-86.6142E-3	120.246E-3	40.0093E-12	-1.15260E+0	27.3465E-3
-98.4252E-3	-5.20269E-12	-98.7876E-3	-98.4252E-3	-66.2634E-3	39.9721E-12	-1.24289E+0	25.5114E-3
-110.236E-3	-5.51547E-12	-110.653E-3	-110.236E-3	-50.5719E-3	40.0020E-12	-1.23947E+0	23.8737E-3
-122.047E-3	-5.87968E-12	-122.386E-3	-122.047E-3	-2.01925E-3	40.0132E-12	-1.22825E+0	27.3458E-3
-133.858E-3	-6.37938E-12	-134.237E-3	-133.858E-3	-58.1072E-3	39.9957E-12	-1.24519E+0	25.6451E-3
-145.669E-3	-6.83052E-12	-146.037E-3	-145.669E-3	-72.5845E-3	40.0315E-12	-1.26529E+0	27.4165E-3
-157.480E-3	-7.33358E-12	-157.807E-3	-157.480E-3	-15.0731E-3	40.0615E-12	-1.26475E+0	23.1036E-3
-169.291E-3	-7.77116E-12	-169.675E-3	-169.291E-3	12.1179E-3	40.0403E-12	-1.26950E+0	23.2403E-3
-181.102E-3	-8.21022E-12	-181.426E-3	-181.102E-3	-128.144E-3	39.9448E-12	-1.33064E+0	29.4645E-3
-192.913E-3	-8.56689E-12	-193.236E-3	-192.913E-3	-26.3670E-3	40.0450E-12	-1.31529E+0	25.8441E-3
-204.724E-3	-9.01236E-12	-205.070E-3	-204.724E-3	135.341E-3	39.9785E-12	-1.27089E+0	29.8561E-3
-216.535E-3	-9.57576E-12	-216.871E-3	-216.535E-3	-4.58993E-3	40.0841E-12	-1.32112E+0	25.2131E-3
-228.346E-3	-9.96726E-12	-228.700E-3	-228.346E-3	-85.4283E-3	40.0317E-12	-1.34272E+0	24.2715E-3
-240.157E-3	-10.5798E-12	-240.494E-3	-240.157E-3	46.5804E-3	39.9990E-12	-1.29589E+0	25.2810E-3
-251.969E-3	-10.9221E-12	-252.310E-3	-251.969E-3	-200.198E-3	39.8915E-12	-1.38772E+0	30.2573E-3
-263.780E-3	-11.5431E-12	-264.075E-3	-263.780E-3	58.2472E-3	40.0538E-12	-1.34449E+0	27.9801E-3
-275.591E-3	-12.1718E-12	-275.871E-3	-275.591E-3	34.4069E-3	40.0658E-12	-1.35351E+0	26.9785E-3
-287.402E-3	-12.6571E-12	-287.724E-3	-287.402E-3	37.5016E-3	39.9865E-12	-1.33655E+0	27.1666E-3
-299.213E-3	-13.0865E-12	-299.521E-3	-299.213E-3	-48.1232E-3	40.0394E-12	-1.37220E+0	26.5812E-3
-311.024E-3	-13.6433E-12	-311.349E-3	-311.024E-3	-177.626E-3	40.0130E-12	-1.42169E+0	25.0837E-3
-322.835E-3	-14.2145E-12	-323.141E-3	-322.835E-3	10.4263E-3	40.0007E-12	-1.37260E+0	28.1436E-3
-334.646E-3	-14.6606E-12	-334.918E-3	-334.646E-3	-140.692E-3	39.9984E-12	-1.44305E+0	28.2169E-3
-346.457E-3	-15.1174E-12	-346.738E-3	-346.457E-3	115.108E-3	39.9879E-12	-1.37549E+0	27.9593E-3
-358.268E-3	-15.7367E-12	-358.571E-3	-358.268E-3	-152.610E-3	39.9815E-12	-1.47221E+0	29.5787E-3
-370.079E-3	-16.4252E-12	-370.365E-3	-370.079E-3	-172.418E-6	40.0839E-12	-1.43803E+0	25.3004E-3
-381.890E-3	-16.8581E-12	-382.136E-3	-381.890E-3	-81.0506E-3	40.0160E-12	-1.45993E+0	26.9492E-3
-393.701E-3	-17.3947E-12	-394.002E-3	-393.701E-3	-29.8564E-3	39.9965E-12	-1.47500E+0	25.6513E-3
-405.512E-3	-17.7919E-12	-405.818E-3	-405.512E-3	32.6562E-3	40.0156E-12	-1.46294E+0	27.0173E-3
-417.323E-3	-18.3232E-12	-417.623E-3	-417.323E-3	-83.8252E-3	40.0020E-12	-1.52525E+0	28.0243E-3
-429.134E-3	-18.9645E-12	-429.430E-3	-429.134E-3	20.5881E-3	39.9042E-12	-1.51012E+0	28.8232E-3
-440.945E-3	-19.7160E-12	-441.222E-3	-440.945E-3	-36.6490E-3	40.0960E-12	-1.53289E+0	24.8169E-3
-452.756E-3	-20.2884E-12	-453.032E-3	-452.756E-3	102.156E-3	39.9916E-12	-1.48781E+0	26.9996E-3
-464.567E-3	-21.2664E-12	-464.857E-3	-464.567E-3	-138.147E-3	39.9367E-12	-1.57884E+0	30.0313E-3
-476.378E-3	-22.4587E-12	-476.694E-3	-476.378E-3	-10.8680E-3	40.0308E-12	-1.56650E+0	26.6132E-3
-488.189E-3	-23.0787E-12	-488.429E-3	-488.189E-3	-162.945E-3	40.0261E-12	-1.63557E+0	26.0499E-3
-500.000E-3	-24.0594E-12	-500.262E-3	-500.000E-3	40.1959E-3	40.0148E-12	-1.59396E+0	27.2958E-3
