Experiment	bias spectroscopy	
Date	30.11.2015 21:53:10	
User		
X (m)	29.4803E-9	
Y (m)	-166.421E-9	
Z (m)	-3.75578E-9	
Z offset (m)	0E+0	
Settling time (s)	30E-3	
Integration time (s)	200E-3	
Z-Ctrl hold	TRUE	
Final Z (m)	-3.75578E-9	
Filter type	None	
Order		
Cutoff frq		
Current (A)	63.6198E-12	
Z (m)	-3.75578E-9	
Phase (deg)	-158.175E-3	
Amplitude (m)	39.936E-12	
Frequency Shift (Hz)	-709.137E-3	
Excitation (V)	24.1496E-3	

[DATA]
Bias calc (V)	Current (A)	Applied Voltage measured (V)	Bias (V)	Phase (deg)	Amplitude (m)	Frequency Shift (Hz)	Excitation (V)
1.00000E+0	63.7453E-12	999.321E-3	1.00000E+0	-125.885E-3	39.9876E-12	-686.979E-3	24.2295E-3
988.189E-3	63.0813E-12	987.524E-3	988.189E-3	73.8168E-3	39.9397E-12	-659.516E-3	25.9148E-3
976.378E-3	62.1965E-12	975.757E-3	976.378E-3	242.251E-3	39.9844E-12	-580.629E-3	26.1413E-3
964.567E-3	61.5411E-12	963.891E-3	964.567E-3	-178.527E-3	40.0142E-12	-702.192E-3	23.4068E-3
952.756E-3	60.7760E-12	952.134E-3	952.756E-3	-57.4041E-3	39.9762E-12	-708.377E-3	23.1355E-3
940.945E-3	60.1654E-12	940.292E-3	940.945E-3	127.798E-3	39.9144E-12	-625.076E-3	26.4478E-3
929.134E-3	59.3984E-12	928.469E-3	929.134E-3	78.7546E-3	39.9560E-12	-614.310E-3	27.1115E-3
917.323E-3	59.1038E-12	916.721E-3	917.323E-3	84.5886E-3	40.0464E-12	-576.864E-3	24.3347E-3
905.512E-3	58.2669E-12	904.863E-3	905.512E-3	-108.892E-3	39.9907E-12	-662.475E-3	23.2598E-3
893.701E-3	57.5715E-12	893.106E-3	893.701E-3	-165.540E-3	39.9677E-12	-667.454E-3	25.7156E-3
881.890E-3	57.5093E-12	881.271E-3	881.890E-3	24.9002E-3	40.0446E-12	-625.759E-3	25.3257E-3
870.079E-3	56.6000E-12	869.463E-3	870.079E-3	86.4964E-3	40.0693E-12	-583.510E-3	26.1706E-3
858.268E-3	55.9420E-12	857.646E-3	858.268E-3	5.56082E-3	39.8934E-12	-625.772E-3	28.0924E-3
846.457E-3	55.3400E-12	845.806E-3	846.457E-3	114.032E-3	40.0243E-12	-585.986E-3	21.3622E-3
834.646E-3	55.0905E-12	834.040E-3	834.646E-3	-1.29115E-3	40.0282E-12	-603.511E-3	24.8418E-3
822.835E-3	53.5605E-12	822.233E-3	822.835E-3	167.358E-3	39.9266E-12	-542.994E-3	26.1419E-3
811.024E-3	53.0640E-12	810.404E-3	811.024E-3	-44.0938E-3	39.9537E-12	-599.230E-3	23.0155E-3
799.213E-3	52.6394E-12	798.639E-3	799.213E-3	-162.476E-3	40.0514E-12	-646.308E-3	20.8922E-3
787.402E-3	52.3245E-12	786.802E-3	787.402E-3	46.6483E-3	40.0374E-12	-609.883E-3	24.6403E-3
775.591E-3	51.5620E-12	775.014E-3	775.591E-3	57.8786E-3	39.9886E-12	-596.613E-3	24.7372E-3
763.780E-3	51.1995E-12	763.190E-3	763.780E-3	62.8336E-3	39.9976E-12	-562.456E-3	27.2433E-3
751.969E-3	50.2682E-12	751.408E-3	751.969E-3	-27.5552E-3	39.9376E-12	-610.556E-3	22.8371E-3
740.157E-3	49.6683E-12	739.610E-3	740.157E-3	-38.4179E-3	39.9572E-12	-609.089E-3	27.7034E-3
728.346E-3	48.9565E-12	727.772E-3	728.346E-3	-60.2387E-3	40.0149E-12	-607.181E-3	25.8429E-3
716.535E-3	48.8347E-12	715.986E-3	716.535E-3	44.5549E-3	40.0148E-12	-585.535E-3	24.6918E-3
704.724E-3	47.7544E-12	704.298E-3	704.724E-3	54.9944E-3	40.0042E-12	-563.970E-3	24.4127E-3
692.913E-3	47.1058E-12	692.504E-3	692.913E-3	2.70706E-3	40.0390E-12	-584.099E-3	21.3185E-3
681.102E-3	46.8263E-12	680.723E-3	681.102E-3	-44.3384E-3	39.8836E-12	-575.167E-3	28.7659E-3
669.291E-3	45.4957E-12	668.903E-3	669.291E-3	41.2250E-3	39.9903E-12	-545.674E-3	26.4072E-3
657.480E-3	45.2933E-12	657.070E-3	657.480E-3	98.2672E-3	40.0216E-12	-513.709E-3	24.2054E-3
645.669E-3	44.9418E-12	645.264E-3	645.669E-3	-214.196E-3	40.0407E-12	-634.778E-3	23.4128E-3
633.858E-3	43.7902E-12	633.458E-3	633.858E-3	-40.3817E-3	40.0098E-12	-599.927E-3	24.0304E-3
622.047E-3	43.2118E-12	621.648E-3	622.047E-3	32.3670E-3	39.9969E-12	-569.213E-3	24.2265E-3
610.236E-3	42.3113E-12	609.877E-3	610.236E-3	104.313E-3	39.9592E-12	-549.918E-3	25.4843E-3
598.425E-3	41.7638E-12	598.072E-3	598.425E-3	-3.51695E-3	39.9819E-12	-573.286E-3	25.6106E-3
586.614E-3	41.1928E-12	586.262E-3	586.614E-3	-24.6229E-3	39.9768E-12	-576.436E-3	25.1160E-3
574.803E-3	40.3135E-12	574.438E-3	574.803E-3	23.9110E-3	39.9630E-12	-569.470E-3	25.8965E-3
562.992E-3	39.5779E-12	562.665E-3	562.992E-3	95.5037E-3	40.0005E-12	-535.409E-3	23.6839E-3
551.181E-3	39.0795E-12	550.846E-3	551.181E-3	20.7237E-3	39.9824E-12	-561.536E-3	25.0723E-3
539.370E-3	38.2085E-12	538.985E-3	539.370E-3	-28.4825E-3	40.0901E-12	-603.134E-3	25.7622E-3
527.559E-3	37.2344E-12	527.207E-3	527.559E-3	30.3798E-3	39.9075E-12	-568.308E-3	28.0569E-3
515.748E-3	36.7323E-12	515.379E-3	515.748E-3	-97.1140E-3	39.9630E-12	-624.472E-3	26.7874E-3
503.937E-3	36.0577E-12	503.586E-3	503.937E-3	200.461E-3	39.9902E-12	-517.216E-3	26.8986E-3
492.126E-3	35.5370E-12	491.758E-3	492.126E-3	27.0466E-3	40.0120E-12	-556.523E-3	25.5720E-3
480.315E-3	34.3668E-12	479.940E-3	480.315E-3	-66.9977E-3	39.9814E-12	-588.615E-3	24.9042E-3
468.504E-3	33.9177E-12	468.154E-3	468.504E-3	-88.9620E-3	40.0203E-12	-617.810E-3	25.4368E-3
456.693E-3	33.1991E-12	456.345E-3	456.693E-3	-34.8495E-3	40.0666E-12	-614.499E-3	22.3167E-3
444.882E-3	32.0614E-12	444.579E-3	444.882E-3	38.4440E-3	39.9540E-12	-576.831E-3	27.3930E-3
433.071E-3	31.3854E-12	432.740E-3	433.071E-3	-6.61536E-3	40.1101E-12	-577.386E-3	21.6158E-3
421.260E-3	30.7270E-12	420.933E-3	421.260E-3	112.205E-3	39.9920E-12	-542.895E-3	26.4645E-3
409.449E-3	29.7974E-12	409.149E-3	409.449E-3	-7.35685E-3	40.0481E-12	-593.478E-3	23.6229E-3
397.638E-3	29.2335E-12	397.302E-3	397.638E-3	-7.94564E-3	39.9297E-12	-610.121E-3	25.3048E-3
385.827E-3	28.3701E-12	385.545E-3	385.827E-3	8.70986E-3	40.0021E-12	-619.064E-3	25.6136E-3
374.016E-3	27.6888E-12	373.704E-3	374.016E-3	-15.1201E-3	39.9102E-12	-608.630E-3	28.2680E-3
362.205E-3	26.5674E-12	361.903E-3	362.205E-3	-42.0315E-3	40.0748E-12	-642.407E-3	23.5626E-3
350.394E-3	26.0316E-12	350.160E-3	350.394E-3	137.692E-3	39.9918E-12	-583.306E-3	28.0256E-3
338.583E-3	25.4290E-12	338.305E-3	338.583E-3	92.8006E-3	40.0608E-12	-558.978E-3	23.9716E-3
326.772E-3	24.1411E-12	326.521E-3	326.772E-3	-33.6142E-3	39.9349E-12	-620.612E-3	27.0816E-3
314.961E-3	23.4890E-12	314.684E-3	314.961E-3	-43.6875E-3	39.9968E-12	-643.438E-3	26.9429E-3
303.150E-3	22.5035E-12	302.861E-3	303.150E-3	91.6681E-3	39.9999E-12	-581.647E-3	26.6118E-3
291.339E-3	21.7246E-12	291.108E-3	291.339E-3	-65.7827E-3	40.0212E-12	-638.440E-3	26.8914E-3
279.528E-3	20.7090E-12	279.281E-3	279.528E-3	-20.3763E-3	39.9433E-12	-634.655E-3	27.4782E-3
267.717E-3	20.0397E-12	267.466E-3	267.717E-3	68.8013E-3	40.0243E-12	-597.501E-3	25.1187E-3
255.906E-3	18.8929E-12	255.651E-3	255.906E-3	169.958E-3	39.9606E-12	-570.101E-3	27.5185E-3
244.094E-3	18.2121E-12	243.875E-3	244.094E-3	-122.933E-3	39.9592E-12	-664.312E-3	24.1274E-3
232.283E-3	17.2449E-12	232.020E-3	232.283E-3	74.6346E-3	39.9736E-12	-614.219E-3	28.2489E-3
220.472E-3	16.5172E-12	220.193E-3	220.472E-3	-46.4910E-3	40.0613E-12	-646.828E-3	22.8709E-3
208.661E-3	15.4878E-12	208.413E-3	208.661E-3	47.2606E-3	40.0115E-12	-620.685E-3	20.8053E-3
196.850E-3	14.4657E-12	196.581E-3	196.850E-3	73.4181E-3	39.9546E-12	-609.336E-3	28.8108E-3
185.039E-3	13.4334E-12	184.813E-3	185.039E-3	-50.9709E-3	40.0046E-12	-667.879E-3	27.9414E-3
173.228E-3	12.4866E-12	172.993E-3	173.228E-3	42.2664E-3	39.9530E-12	-658.485E-3	28.5872E-3
161.417E-3	11.4570E-12	161.165E-3	161.417E-3	-127.423E-3	40.0088E-12	-701.096E-3	29.4463E-3
149.606E-3	10.5180E-12	149.334E-3	149.606E-3	5.65083E-3	40.0370E-12	-664.847E-3	25.1198E-3
137.795E-3	9.56950E-12	137.542E-3	137.795E-3	-122.806E-3	39.9960E-12	-747.044E-3	25.0169E-3
125.984E-3	8.65161E-12	125.782E-3	125.984E-3	-101.910E-3	39.9370E-12	-747.545E-3	27.3571E-3
114.173E-3	7.78181E-12	113.940E-3	114.173E-3	134.025E-3	40.0450E-12	-698.170E-3	25.7815E-3
102.362E-3	6.82186E-12	102.135E-3	102.362E-3	-15.2821E-3	39.9754E-12	-716.275E-3	26.9560E-3
90.5512E-3	6.04034E-12	90.3353E-3	90.5512E-3	41.2854E-3	40.0453E-12	-698.876E-3	27.3425E-3
78.7402E-3	5.17691E-12	78.4978E-3	78.7402E-3	-99.3668E-3	40.0246E-12	-757.765E-3	25.9424E-3
66.9291E-3	4.35504E-12	66.6309E-3	66.9291E-3	128.047E-3	39.9689E-12	-695.374E-3	30.5862E-3
55.1181E-3	3.54940E-12	54.8508E-3	55.1181E-3	-47.5239E-3	39.9748E-12	-725.155E-3	26.2557E-3
43.3071E-3	2.73267E-12	43.0278E-3	43.3071E-3	-27.0130E-3	40.0353E-12	-745.634E-3	26.4191E-3
31.4961E-3	1.96339E-12	31.2035E-3	31.4961E-3	-112.242E-3	40.0436E-12	-766.189E-3	25.8495E-3
19.6850E-3	1.20809E-12	19.4111E-3	19.6850E-3	-3.85825E-3	40.0653E-12	-731.808E-3	23.6709E-3
7.87402E-3	428.566E-15	7.55282E-3	7.87402E-3	-45.8073E-3	40.0505E-12	-777.476E-3	23.1795E-3
-3.93701E-3	-338.140E-15	-4.33328E-3	-3.93701E-3	-76.9750E-3	40.0694E-12	-783.689E-3	23.2657E-3
-15.7480E-3	-1.15744E-12	-16.1243E-3	-15.7480E-3	17.3752E-3	39.9389E-12	-773.843E-3	27.2126E-3
-27.5591E-3	-1.97456E-12	-27.9403E-3	-27.5591E-3	4.91500E-3	39.9833E-12	-776.432E-3	27.3892E-3
-39.3701E-3	-2.73043E-12	-39.7084E-3	-39.3701E-3	-92.8132E-3	39.9246E-12	-834.420E-3	30.1695E-3
-51.1811E-3	-3.39773E-12	-51.5598E-3	-51.1811E-3	48.6740E-3	40.0563E-12	-794.613E-3	24.9141E-3
-62.9921E-3	-4.12590E-12	-63.3295E-3	-62.9921E-3	106.134E-3	40.0905E-12	-756.738E-3	25.0060E-3
-74.8032E-3	-4.53662E-12	-75.1657E-3	-74.8032E-3	-97.2475E-3	39.8766E-12	-842.907E-3	28.9840E-3
-86.6142E-3	-4.96791E-12	-87.0307E-3	-86.6142E-3	-34.1024E-3	40.0417E-12	-820.870E-3	26.1553E-3
-98.4252E-3	-5.30625E-12	-98.7949E-3	-98.4252E-3	-58.3897E-3	39.9991E-12	-864.994E-3	27.0833E-3
-110.236E-3	-5.57348E-12	-110.650E-3	-110.236E-3	-44.5687E-3	39.9404E-12	-870.789E-3	25.1010E-3
-122.047E-3	-5.92173E-12	-122.391E-3	-122.047E-3	114.259E-3	40.0609E-12	-810.095E-3	24.9810E-3
-133.858E-3	-6.13726E-12	-134.248E-3	-133.858E-3	-135.302E-3	39.9941E-12	-888.904E-3	26.7612E-3
-145.669E-3	-6.32713E-12	-146.043E-3	-145.669E-3	-106.980E-3	40.0164E-12	-914.984E-3	25.3784E-3
-157.480E-3	-6.52104E-12	-157.824E-3	-157.480E-3	64.6459E-3	40.0049E-12	-871.423E-3	25.6507E-3
-169.291E-3	-6.73529E-12	-169.687E-3	-169.291E-3	-37.2810E-3	40.0338E-12	-894.898E-3	24.7580E-3
-181.102E-3	-6.99020E-12	-181.429E-3	-181.102E-3	71.1070E-3	39.9622E-12	-864.949E-3	25.3906E-3
-192.913E-3	-7.22128E-12	-193.236E-3	-192.913E-3	29.7818E-3	39.9511E-12	-876.393E-3	29.4489E-3
-204.724E-3	-7.47862E-12	-205.068E-3	-204.724E-3	62.1285E-3	39.9951E-12	-869.307E-3	28.8958E-3
-216.535E-3	-7.74761E-12	-216.866E-3	-216.535E-3	-121.252E-3	40.0799E-12	-932.298E-3	25.0048E-3
-228.346E-3	-8.15984E-12	-228.684E-3	-228.346E-3	72.6447E-3	40.0498E-12	-891.070E-3	25.9090E-3
-240.157E-3	-8.40293E-12	-240.483E-3	-240.157E-3	-52.8122E-3	39.9540E-12	-927.872E-3	27.5369E-3
-251.969E-3	-8.66625E-12	-252.302E-3	-251.969E-3	-254.706E-3	40.0136E-12	-1.01154E+0	26.0436E-3
-263.780E-3	-8.99247E-12	-264.079E-3	-263.780E-3	86.1353E-3	39.9902E-12	-939.591E-3	27.1167E-3
-275.591E-3	-9.18246E-12	-275.882E-3	-275.591E-3	-2.27255E-3	39.9747E-12	-944.585E-3	28.6901E-3
-287.402E-3	-9.58901E-12	-287.723E-3	-287.402E-3	-25.1290E-3	39.9459E-12	-955.427E-3	27.8459E-3
-299.213E-3	-9.88575E-12	-299.511E-3	-299.213E-3	-33.1829E-3	40.0707E-12	-972.721E-3	26.7581E-3
-311.024E-3	-10.0358E-12	-311.342E-3	-311.024E-3	-184.161E-3	39.8914E-12	-1.04314E+0	28.5014E-3
-322.835E-3	-10.3912E-12	-323.137E-3	-322.835E-3	-55.3080E-3	39.9818E-12	-1.01109E+0	27.2729E-3
-334.646E-3	-10.7190E-12	-334.908E-3	-334.646E-3	-103.602E-3	39.9688E-12	-1.05278E+0	28.0842E-3
-346.457E-3	-10.9755E-12	-346.732E-3	-346.457E-3	29.1017E-3	39.9868E-12	-1.00181E+0	25.6841E-3
-358.268E-3	-11.4022E-12	-358.564E-3	-358.268E-3	1.90422E-3	40.0254E-12	-1.00293E+0	27.1055E-3
-370.079E-3	-11.6309E-12	-370.370E-3	-370.079E-3	-79.5111E-3	40.0651E-12	-1.03933E+0	25.0138E-3
-381.890E-3	-12.0575E-12	-382.138E-3	-381.890E-3	-112.523E-3	39.9678E-12	-1.06922E+0	30.2295E-3
-393.701E-3	-12.3014E-12	-394.000E-3	-393.701E-3	38.2616E-3	40.0062E-12	-1.02919E+0	28.0718E-3
-405.512E-3	-12.7398E-12	-405.809E-3	-405.512E-3	-89.3431E-3	39.9940E-12	-1.08358E+0	28.1755E-3
-417.323E-3	-13.0915E-12	-417.606E-3	-417.323E-3	-54.1592E-3	40.0341E-12	-1.08173E+0	26.4822E-3
-429.134E-3	-13.2486E-12	-429.426E-3	-429.134E-3	-149.592E-3	40.0266E-12	-1.14569E+0	26.0827E-3
-440.945E-3	-13.4948E-12	-441.224E-3	-440.945E-3	-14.5291E-3	40.0100E-12	-1.11077E+0	26.9807E-3
-452.756E-3	-14.0307E-12	-453.038E-3	-452.756E-3	35.0307E-3	39.9554E-12	-1.10246E+0	28.7715E-3
-464.567E-3	-14.1416E-12	-464.861E-3	-464.567E-3	-121.885E-3	40.0406E-12	-1.16381E+0	26.8484E-3
-476.378E-3	-14.3016E-12	-476.682E-3	-476.378E-3	61.8074E-3	39.9999E-12	-1.12434E+0	26.5236E-3
-488.189E-3	-14.5738E-12	-488.412E-3	-488.189E-3	-3.61944E-3	39.9869E-12	-1.14006E+0	28.3282E-3
-500.000E-3	-14.7592E-12	-500.250E-3	-500.000E-3	-119.711E-3	40.0083E-12	-1.20571E+0	29.8854E-3
