Experiment	bias spectroscopy	
Date	30.11.2015 17:54:19	
User		
X (m)	28.502E-9	
Y (m)	-167.009E-9	
Z (m)	-3.75578E-9	
Z offset (m)	0E+0	
Settling time (s)	30E-3	
Integration time (s)	200E-3	
Z-Ctrl hold	TRUE	
Final Z (m)	-3.75578E-9	
Filter type	None	
Order		
Cutoff frq		
Current (A)	19.88E-12	
Z (m)	-3.75578E-9	
Phase (deg)	-3.53392E-3	
Amplitude (m)	40.2259E-12	
Frequency Shift (Hz)	-761.957E-3	
Excitation (V)	12.405E-3	

[DATA]
Bias calc (V)	Current (A)	Applied Voltage measured (V)	Bias (V)	Phase (deg)	Amplitude (m)	Frequency Shift (Hz)	Excitation (V)
1.00000E+0	19.2073E-12	999.343E-3	1.00000E+0	11.1450E-3	39.9237E-12	-773.625E-3	27.7408E-3
988.189E-3	19.1921E-12	987.542E-3	988.189E-3	731.900E-6	40.0101E-12	-771.362E-3	27.4119E-3
976.378E-3	18.7242E-12	975.787E-3	976.378E-3	59.6160E-3	40.0033E-12	-713.408E-3	27.2120E-3
964.567E-3	18.9078E-12	963.910E-3	964.567E-3	-127.354E-3	40.0196E-12	-792.275E-3	27.2242E-3
952.756E-3	18.6193E-12	952.158E-3	952.756E-3	84.0945E-3	40.0684E-12	-717.595E-3	26.3748E-3
940.945E-3	18.4030E-12	940.324E-3	940.945E-3	-10.2978E-3	39.9813E-12	-739.526E-3	26.4690E-3
929.134E-3	18.2510E-12	928.500E-3	929.134E-3	69.6284E-3	40.0112E-12	-710.875E-3	26.2355E-3
917.323E-3	18.5037E-12	916.752E-3	917.323E-3	51.8703E-3	40.0727E-12	-705.080E-3	24.6971E-3
905.512E-3	17.9100E-12	904.891E-3	905.512E-3	137.439E-3	39.9362E-12	-651.814E-3	27.8441E-3
893.701E-3	17.7682E-12	893.139E-3	893.701E-3	-47.0518E-3	39.9766E-12	-692.689E-3	23.8086E-3
881.890E-3	17.5954E-12	881.299E-3	881.890E-3	37.0772E-3	39.9508E-12	-678.264E-3	28.4038E-3
870.079E-3	17.5712E-12	869.486E-3	870.079E-3	-36.0708E-3	40.0509E-12	-702.307E-3	25.4669E-3
858.268E-3	17.3906E-12	857.671E-3	858.268E-3	45.5890E-3	40.0202E-12	-657.253E-3	24.6170E-3
846.457E-3	17.0574E-12	845.839E-3	846.457E-3	50.5022E-3	40.0416E-12	-648.115E-3	23.3822E-3
834.646E-3	17.0299E-12	834.068E-3	834.646E-3	106.232E-3	39.9934E-12	-640.298E-3	26.9261E-3
822.835E-3	16.7692E-12	822.256E-3	822.835E-3	18.8711E-3	39.9344E-12	-661.607E-3	29.2951E-3
811.024E-3	16.7814E-12	810.428E-3	811.024E-3	26.1700E-3	40.1087E-12	-658.508E-3	25.9243E-3
799.213E-3	16.2814E-12	798.661E-3	799.213E-3	-26.4950E-3	39.9624E-12	-687.950E-3	25.1842E-3
787.402E-3	16.3198E-12	786.826E-3	787.402E-3	86.8615E-3	40.1003E-12	-633.339E-3	20.1146E-3
775.591E-3	16.0995E-12	775.046E-3	775.591E-3	108.838E-3	39.9359E-12	-607.613E-3	27.0285E-3
763.780E-3	15.9535E-12	763.224E-3	763.780E-3	28.2520E-3	39.9953E-12	-622.639E-3	23.5238E-3
751.969E-3	15.7300E-12	751.445E-3	751.969E-3	-58.4158E-3	39.9316E-12	-659.882E-3	28.0916E-3
740.157E-3	15.6794E-12	739.635E-3	740.157E-3	80.2210E-3	39.9881E-12	-628.910E-3	28.4843E-3
728.346E-3	15.4979E-12	727.794E-3	728.346E-3	119.698E-3	40.0240E-12	-589.534E-3	29.0360E-3
716.535E-3	15.2099E-12	716.013E-3	716.535E-3	-44.7606E-3	40.0582E-12	-646.402E-3	22.8930E-3
704.724E-3	14.9878E-12	704.322E-3	704.724E-3	71.3645E-3	39.9814E-12	-634.714E-3	25.3590E-3
692.913E-3	14.8643E-12	692.530E-3	692.913E-3	65.7419E-3	39.9720E-12	-611.403E-3	26.1363E-3
681.102E-3	14.7631E-12	680.755E-3	681.102E-3	19.6855E-3	40.0173E-12	-613.274E-3	26.2922E-3
669.291E-3	14.4417E-12	668.944E-3	669.291E-3	-69.7065E-3	39.9858E-12	-653.039E-3	30.3862E-3
657.480E-3	14.2825E-12	657.095E-3	657.480E-3	54.6192E-3	40.0136E-12	-626.377E-3	23.7417E-3
645.669E-3	14.0144E-12	645.287E-3	645.669E-3	142.726E-3	39.9961E-12	-575.885E-3	26.6040E-3
633.858E-3	13.8539E-12	633.484E-3	633.858E-3	-119.935E-3	39.9912E-12	-637.332E-3	25.8079E-3
622.047E-3	13.6601E-12	621.679E-3	622.047E-3	-66.7474E-3	40.0262E-12	-636.982E-3	26.4574E-3
610.236E-3	13.4751E-12	609.908E-3	610.236E-3	-4.91231E-3	39.9742E-12	-630.547E-3	25.1256E-3
598.425E-3	13.3462E-12	598.099E-3	598.425E-3	89.9666E-3	39.9925E-12	-597.989E-3	25.6198E-3
586.614E-3	12.9948E-12	586.295E-3	586.614E-3	103.242E-3	40.0032E-12	-572.692E-3	27.0220E-3
574.803E-3	12.8972E-12	574.478E-3	574.803E-3	-135.468E-3	40.0758E-12	-643.273E-3	23.0435E-3
562.992E-3	12.7718E-12	562.698E-3	562.992E-3	54.6656E-3	40.0446E-12	-571.555E-3	22.7887E-3
551.181E-3	12.7945E-12	550.878E-3	551.181E-3	-92.8123E-3	40.0530E-12	-638.826E-3	22.6232E-3
539.370E-3	12.1729E-12	539.011E-3	539.370E-3	62.0254E-3	39.9281E-12	-582.783E-3	25.5599E-3
527.559E-3	12.1645E-12	527.225E-3	527.559E-3	-56.8846E-3	40.0250E-12	-598.769E-3	25.6567E-3
515.748E-3	11.9485E-12	515.398E-3	515.748E-3	-130.517E-3	40.0302E-12	-643.181E-3	23.9916E-3
503.937E-3	11.7560E-12	503.601E-3	503.937E-3	69.3743E-3	40.0161E-12	-590.227E-3	26.7122E-3
492.126E-3	11.5863E-12	491.781E-3	492.126E-3	49.1921E-3	39.9890E-12	-575.018E-3	27.4453E-3
480.315E-3	11.2148E-12	479.970E-3	480.315E-3	-36.0975E-3	40.0111E-12	-607.961E-3	27.2437E-3
468.504E-3	11.0470E-12	468.176E-3	468.504E-3	-43.4188E-3	39.9725E-12	-628.408E-3	25.9948E-3
456.693E-3	10.8005E-12	456.367E-3	456.693E-3	-95.5282E-3	39.9707E-12	-637.672E-3	25.3525E-3
444.882E-3	10.6908E-12	444.594E-3	444.882E-3	59.7652E-3	39.9327E-12	-599.751E-3	28.4022E-3
433.071E-3	10.5721E-12	432.757E-3	433.071E-3	28.0226E-3	40.0435E-12	-598.631E-3	23.0962E-3
421.260E-3	10.1422E-12	420.953E-3	421.260E-3	32.9133E-3	39.9470E-12	-583.778E-3	27.6980E-3
409.449E-3	10.1341E-12	409.178E-3	409.449E-3	23.0912E-3	40.0294E-12	-573.799E-3	27.4192E-3
397.638E-3	9.82600E-12	397.330E-3	397.638E-3	-545.643E-6	40.0194E-12	-596.435E-3	27.7312E-3
385.827E-3	9.48143E-12	385.573E-3	385.827E-3	-135.378E-3	39.9235E-12	-646.450E-3	27.0561E-3
374.016E-3	9.46439E-12	373.728E-3	374.016E-3	174.836E-3	40.0687E-12	-570.819E-3	23.2506E-3
362.205E-3	9.13139E-12	361.924E-3	362.205E-3	50.0718E-3	40.0605E-12	-617.902E-3	25.4034E-3
350.394E-3	8.85743E-12	350.171E-3	350.394E-3	-97.1462E-3	39.9984E-12	-656.190E-3	26.7740E-3
338.583E-3	8.59140E-12	338.320E-3	338.583E-3	195.414E-3	39.9706E-12	-571.335E-3	26.6615E-3
326.772E-3	8.41260E-12	326.534E-3	326.772E-3	-65.8468E-3	39.9815E-12	-598.560E-3	27.3298E-3
314.961E-3	8.13322E-12	314.701E-3	314.961E-3	-28.4175E-3	39.9754E-12	-607.148E-3	27.3704E-3
303.150E-3	7.83325E-12	302.875E-3	303.150E-3	12.7225E-3	40.0206E-12	-611.851E-3	24.1653E-3
291.339E-3	7.51873E-12	291.120E-3	291.339E-3	113.224E-3	39.9625E-12	-550.077E-3	28.0484E-3
279.528E-3	7.28542E-12	279.293E-3	279.528E-3	-80.4896E-3	39.9913E-12	-632.934E-3	27.3629E-3
267.717E-3	7.04479E-12	267.481E-3	267.717E-3	70.6077E-3	40.0323E-12	-569.621E-3	27.3315E-3
255.906E-3	6.71688E-12	255.662E-3	255.906E-3	-56.0130E-3	40.0077E-12	-609.147E-3	24.4471E-3
244.094E-3	6.48204E-12	243.887E-3	244.094E-3	56.2400E-3	40.0416E-12	-595.246E-3	24.8050E-3
232.283E-3	6.15034E-12	232.034E-3	232.283E-3	102.172E-3	39.9697E-12	-568.642E-3	28.2492E-3
220.472E-3	5.79306E-12	220.199E-3	220.472E-3	-5.37927E-3	39.9926E-12	-616.352E-3	26.4734E-3
208.661E-3	5.45868E-12	208.419E-3	208.661E-3	32.7428E-3	39.9530E-12	-614.199E-3	27.3803E-3
196.850E-3	5.15429E-12	196.589E-3	196.850E-3	-123.556E-3	40.0164E-12	-680.464E-3	27.1551E-3
185.039E-3	4.77785E-12	184.823E-3	185.039E-3	1.06517E-3	40.0060E-12	-642.600E-3	29.2428E-3
173.228E-3	4.45024E-12	173.017E-3	173.228E-3	-45.0901E-3	40.0186E-12	-644.155E-3	27.1564E-3
161.417E-3	4.08813E-12	161.177E-3	161.417E-3	-43.0728E-3	39.9488E-12	-643.007E-3	26.7247E-3
149.606E-3	3.76801E-12	149.354E-3	149.606E-3	-161.730E-3	40.0098E-12	-703.778E-3	26.6631E-3
137.795E-3	3.46609E-12	137.568E-3	137.795E-3	141.019E-3	40.0522E-12	-611.738E-3	24.5228E-3
125.984E-3	3.13917E-12	125.799E-3	125.984E-3	-169.776E-3	39.9675E-12	-713.889E-3	29.7782E-3
114.173E-3	2.81101E-12	113.962E-3	114.173E-3	117.143E-3	40.0103E-12	-640.402E-3	25.5631E-3
102.362E-3	2.51666E-12	102.159E-3	102.362E-3	18.6660E-3	40.0100E-12	-651.971E-3	27.0416E-3
90.5512E-3	2.21353E-12	90.3461E-3	90.5512E-3	42.9616E-3	39.9997E-12	-648.162E-3	27.0054E-3
78.7402E-3	1.94607E-12	78.5076E-3	78.7402E-3	10.3791E-3	40.0613E-12	-670.582E-3	25.9866E-3
66.9291E-3	1.63021E-12	66.6410E-3	66.9291E-3	-78.3386E-3	39.9989E-12	-694.331E-3	25.6065E-3
55.1181E-3	1.34824E-12	54.8689E-3	55.1181E-3	57.9000E-3	39.9935E-12	-666.925E-3	26.2389E-3
43.3071E-3	1.04059E-12	43.0561E-3	43.3071E-3	-125.966E-3	40.0830E-12	-745.088E-3	25.3699E-3
31.4961E-3	727.714E-15	31.2231E-3	31.4961E-3	28.6402E-3	39.9312E-12	-687.062E-3	27.2581E-3
19.6850E-3	431.183E-15	19.4269E-3	19.6850E-3	21.0172E-3	40.0095E-12	-682.184E-3	27.5142E-3
7.87402E-3	109.946E-15	7.56853E-3	7.87402E-3	45.9147E-3	39.9722E-12	-676.975E-3	30.1212E-3
-3.93701E-3	-230.089E-15	-4.31909E-3	-3.93701E-3	-57.0575E-3	40.0160E-12	-699.733E-3	25.4786E-3
-15.7480E-3	-543.120E-15	-16.1092E-3	-15.7480E-3	-9.09507E-3	40.0097E-12	-689.954E-3	26.1778E-3
-27.5591E-3	-863.225E-15	-27.9194E-3	-27.5591E-3	-123.327E-3	39.9651E-12	-749.713E-3	26.6111E-3
-39.3701E-3	-1.15517E-12	-39.6822E-3	-39.3701E-3	29.9381E-3	39.9783E-12	-721.034E-3	26.8936E-3
-51.1811E-3	-1.42405E-12	-51.5320E-3	-51.1811E-3	-23.1868E-3	39.9834E-12	-742.308E-3	26.8383E-3
-62.9921E-3	-1.63354E-12	-63.3072E-3	-62.9921E-3	-52.7983E-3	39.9855E-12	-758.988E-3	25.4680E-3
-74.8032E-3	-1.83260E-12	-75.1413E-3	-74.8032E-3	-107.696E-3	40.0052E-12	-774.377E-3	27.2517E-3
-86.6142E-3	-1.98960E-12	-87.0058E-3	-86.6142E-3	-113.973E-3	39.9752E-12	-796.899E-3	26.3160E-3
-98.4252E-3	-2.08278E-12	-98.7768E-3	-98.4252E-3	126.702E-3	39.9866E-12	-719.077E-3	25.5189E-3
-110.236E-3	-2.18845E-12	-110.645E-3	-110.236E-3	85.3976E-3	40.0206E-12	-710.399E-3	27.8336E-3
-122.047E-3	-2.25035E-12	-122.384E-3	-122.047E-3	-97.2957E-3	39.9192E-12	-789.321E-3	30.7892E-3
-133.858E-3	-2.31946E-12	-134.243E-3	-133.858E-3	-90.1203E-3	39.9922E-12	-796.414E-3	25.5074E-3
-145.669E-3	-2.40183E-12	-146.035E-3	-145.669E-3	-55.1143E-3	40.0361E-12	-794.363E-3	27.4177E-3
-157.480E-3	-2.46407E-12	-157.806E-3	-157.480E-3	95.2931E-3	39.9947E-12	-771.987E-3	26.6594E-3
-169.291E-3	-2.53415E-12	-169.680E-3	-169.291E-3	-34.8697E-3	39.9814E-12	-805.385E-3	29.2230E-3
-181.102E-3	-2.58942E-12	-181.414E-3	-181.102E-3	-10.0085E-3	39.9467E-12	-817.983E-3	29.7853E-3
-192.913E-3	-2.69452E-12	-193.232E-3	-192.913E-3	-97.2155E-3	39.9835E-12	-830.149E-3	29.4007E-3
-204.724E-3	-2.78469E-12	-205.054E-3	-204.724E-3	-2.94883E-3	39.9776E-12	-808.254E-3	28.1023E-3
-216.535E-3	-2.87423E-12	-216.856E-3	-216.535E-3	102.568E-3	39.9905E-12	-765.785E-3	26.0681E-3
-228.346E-3	-2.95277E-12	-228.674E-3	-228.346E-3	-59.4607E-3	40.0914E-12	-828.298E-3	26.0946E-3
-240.157E-3	-3.05836E-12	-240.478E-3	-240.157E-3	-166.788E-3	39.9620E-12	-879.730E-3	29.2107E-3
-251.969E-3	-3.10509E-12	-252.301E-3	-251.969E-3	109.278E-3	40.0199E-12	-807.802E-3	28.0633E-3
-263.780E-3	-3.24454E-12	-264.067E-3	-263.780E-3	-107.801E-3	40.0573E-12	-880.402E-3	24.8972E-3
-275.591E-3	-3.34074E-12	-275.867E-3	-275.591E-3	7.05200E-3	40.0453E-12	-848.874E-3	25.6616E-3
-287.402E-3	-3.36379E-12	-287.709E-3	-287.402E-3	-71.5785E-3	40.0081E-12	-902.179E-3	26.4501E-3
-299.213E-3	-3.47047E-12	-299.494E-3	-299.213E-3	98.2301E-3	39.9806E-12	-835.464E-3	27.5107E-3
-311.024E-3	-3.62381E-12	-311.331E-3	-311.024E-3	-77.5341E-3	40.0233E-12	-884.294E-3	25.8260E-3
-322.835E-3	-3.69248E-12	-323.124E-3	-322.835E-3	-116.654E-3	40.0150E-12	-937.301E-3	25.9584E-3
-334.646E-3	-3.80175E-12	-334.895E-3	-334.646E-3	-201.005E-3	39.9974E-12	-972.915E-3	26.9865E-3
-346.457E-3	-3.86338E-12	-346.715E-3	-346.457E-3	57.8072E-3	39.9649E-12	-922.151E-3	27.1902E-3
-358.268E-3	-3.95259E-12	-358.553E-3	-358.268E-3	76.1334E-3	39.9161E-12	-903.513E-3	29.2686E-3
-370.079E-3	-4.08110E-12	-370.357E-3	-370.079E-3	-36.9513E-3	40.0490E-12	-937.777E-3	24.0735E-3
-381.890E-3	-4.15709E-12	-382.122E-3	-381.890E-3	-103.399E-3	39.9551E-12	-964.299E-3	27.9615E-3
-393.701E-3	-4.30628E-12	-393.992E-3	-393.701E-3	-30.7006E-3	40.0944E-12	-949.544E-3	22.2974E-3
-405.512E-3	-4.32589E-12	-405.798E-3	-405.512E-3	-49.9126E-3	40.0212E-12	-980.405E-3	27.4210E-3
-417.323E-3	-4.41168E-12	-417.600E-3	-417.323E-3	27.0262E-3	40.0528E-12	-972.004E-3	24.3621E-3
-429.134E-3	-4.57065E-12	-429.405E-3	-429.134E-3	11.1998E-3	40.0547E-12	-966.475E-3	25.2903E-3
-440.945E-3	-4.56665E-12	-441.208E-3	-440.945E-3	-135.847E-3	39.8880E-12	-1.04032E+0	30.1863E-3
-452.756E-3	-4.72473E-12	-453.016E-3	-452.756E-3	140.103E-3	40.0519E-12	-952.247E-3	28.3928E-3
-464.567E-3	-4.70341E-12	-464.836E-3	-464.567E-3	-187.422E-3	40.0573E-12	-1.08671E+0	25.9391E-3
-476.378E-3	-4.74847E-12	-476.664E-3	-476.378E-3	106.515E-3	39.9489E-12	-1.00383E+0	26.4659E-3
-488.189E-3	-4.78675E-12	-488.401E-3	-488.189E-3	20.2776E-3	39.9990E-12	-1.01705E+0	27.6574E-3
-500.000E-3	-4.81057E-12	-500.231E-3	-500.000E-3	-32.8432E-3	40.0014E-12	-1.06340E+0	26.2320E-3
