Experiment	bias spectroscopy	
Date	30.11.2015 18:47:38	
User		
X (m)	28.5239E-9	
Y (m)	-166.134E-9	
Z (m)	-3.75578E-9	
Z offset (m)	0E+0	
Settling time (s)	30E-3	
Integration time (s)	200E-3	
Z-Ctrl hold	TRUE	
Final Z (m)	-3.75578E-9	
Filter type	None	
Order		
Cutoff frq		
Current (A)	50.8443E-12	
Z (m)	-3.75578E-9	
Phase (deg)	-887.812E-3	
Amplitude (m)	39.6771E-12	
Frequency Shift (Hz)	-1.02454E+0	
Excitation (V)	42.8332E-3	

[DATA]
Bias calc (V)	Current (A)	Applied Voltage measured (V)	Bias (V)	Phase (deg)	Amplitude (m)	Frequency Shift (Hz)	Excitation (V)
1.00000E+0	51.1615E-12	999.336E-3	1.00000E+0	-56.5828E-3	40.0523E-12	-775.893E-3	24.5686E-3
988.189E-3	50.7860E-12	987.545E-3	988.189E-3	183.968E-3	40.0472E-12	-680.315E-3	23.5990E-3
976.378E-3	49.6835E-12	975.779E-3	976.378E-3	-54.3797E-3	39.8959E-12	-726.911E-3	26.1527E-3
964.567E-3	49.2331E-12	963.912E-3	964.567E-3	-135.911E-3	40.0513E-12	-765.731E-3	23.2913E-3
952.756E-3	48.1374E-12	952.155E-3	952.756E-3	-78.3688E-3	40.0389E-12	-756.268E-3	24.6414E-3
940.945E-3	47.4373E-12	940.319E-3	940.945E-3	88.7959E-3	39.9934E-12	-703.503E-3	27.2996E-3
929.134E-3	46.0362E-12	928.506E-3	929.134E-3	95.4529E-3	39.9895E-12	-699.050E-3	22.9896E-3
917.323E-3	45.6062E-12	916.749E-3	917.323E-3	8.87379E-3	39.9251E-12	-706.526E-3	26.7930E-3
905.512E-3	44.7800E-12	904.891E-3	905.512E-3	-25.7396E-3	40.0176E-12	-726.490E-3	22.4994E-3
893.701E-3	44.1034E-12	893.129E-3	893.701E-3	-80.6479E-3	39.9157E-12	-755.089E-3	28.5668E-3
881.890E-3	44.0286E-12	881.281E-3	881.890E-3	63.0555E-3	40.0849E-12	-740.885E-3	22.8922E-3
870.079E-3	42.8863E-12	869.479E-3	870.079E-3	15.0914E-3	39.9519E-12	-724.506E-3	27.1010E-3
858.268E-3	42.0940E-12	857.655E-3	858.268E-3	103.938E-3	40.0814E-12	-695.662E-3	26.1416E-3
846.457E-3	41.7207E-12	845.824E-3	846.457E-3	-113.140E-3	40.0028E-12	-750.008E-3	25.4044E-3
834.646E-3	40.4064E-12	834.051E-3	834.646E-3	18.0554E-3	39.9785E-12	-724.607E-3	25.7338E-3
822.835E-3	40.4753E-12	822.243E-3	822.835E-3	97.8114E-3	40.0423E-12	-675.213E-3	25.0302E-3
811.024E-3	39.4174E-12	810.421E-3	811.024E-3	-65.6599E-3	39.9890E-12	-671.018E-3	27.3409E-3
799.213E-3	38.8841E-12	798.647E-3	799.213E-3	-28.2008E-3	40.0005E-12	-673.218E-3	27.7490E-3
787.402E-3	38.0905E-12	786.821E-3	787.402E-3	43.1270E-3	39.9379E-12	-652.849E-3	26.1455E-3
775.591E-3	37.9813E-12	775.015E-3	775.591E-3	126.134E-3	40.0280E-12	-611.138E-3	26.2208E-3
763.780E-3	37.0770E-12	763.198E-3	763.780E-3	-127.591E-3	39.9457E-12	-707.119E-3	26.3869E-3
751.969E-3	36.5850E-12	751.422E-3	751.969E-3	-67.5250E-3	40.0708E-12	-713.223E-3	24.2493E-3
740.157E-3	36.0879E-12	739.622E-3	740.157E-3	-62.0865E-3	39.9615E-12	-705.998E-3	25.1042E-3
728.346E-3	35.2021E-12	727.793E-3	728.346E-3	156.181E-3	40.0100E-12	-649.682E-3	25.2293E-3
716.535E-3	34.4835E-12	716.001E-3	716.535E-3	76.5360E-3	40.0177E-12	-637.341E-3	27.4325E-3
704.724E-3	34.1996E-12	704.312E-3	704.724E-3	-10.9788E-3	39.9821E-12	-655.732E-3	25.4698E-3
692.913E-3	33.9226E-12	692.508E-3	692.913E-3	-178.417E-3	39.9935E-12	-721.401E-3	23.6576E-3
681.102E-3	33.3213E-12	680.740E-3	681.102E-3	227.929E-3	39.9967E-12	-616.782E-3	27.0084E-3
669.291E-3	32.3404E-12	668.917E-3	669.291E-3	67.2097E-3	39.9455E-12	-642.427E-3	29.3534E-3
657.480E-3	32.1140E-12	657.079E-3	657.480E-3	-53.4400E-3	40.0490E-12	-646.297E-3	23.9219E-3
645.669E-3	31.5330E-12	645.281E-3	645.669E-3	127.972E-3	40.0495E-12	-591.045E-3	25.6713E-3
633.858E-3	30.8811E-12	633.469E-3	633.858E-3	10.3050E-3	39.9443E-12	-620.410E-3	27.1786E-3
622.047E-3	30.0467E-12	621.670E-3	622.047E-3	-6.57178E-3	39.9789E-12	-636.924E-3	26.4804E-3
610.236E-3	29.8541E-12	609.902E-3	610.236E-3	-148.890E-3	40.0408E-12	-692.808E-3	23.3609E-3
598.425E-3	29.1609E-12	598.089E-3	598.425E-3	-80.9448E-3	39.9545E-12	-693.250E-3	27.4685E-3
586.614E-3	28.4716E-12	586.286E-3	586.614E-3	138.058E-3	39.9859E-12	-645.671E-3	26.0819E-3
574.803E-3	27.8949E-12	574.464E-3	574.803E-3	52.0350E-3	40.0117E-12	-655.113E-3	23.2850E-3
562.992E-3	27.5438E-12	562.686E-3	562.992E-3	-38.5341E-3	40.0258E-12	-684.115E-3	24.7124E-3
551.181E-3	26.8871E-12	550.871E-3	551.181E-3	-27.1645E-3	40.0390E-12	-673.072E-3	23.9946E-3
539.370E-3	26.3550E-12	539.006E-3	539.370E-3	211.080E-3	40.0000E-12	-601.685E-3	26.5671E-3
527.559E-3	25.6404E-12	527.220E-3	527.559E-3	-58.9287E-3	39.9584E-12	-664.729E-3	26.3322E-3
515.748E-3	25.2537E-12	515.393E-3	515.748E-3	-9.27819E-3	40.0281E-12	-635.626E-3	27.6425E-3
503.937E-3	24.4322E-12	503.601E-3	503.937E-3	51.8276E-3	39.9771E-12	-629.603E-3	27.8291E-3
492.126E-3	24.1019E-12	491.776E-3	492.126E-3	107.731E-3	40.0196E-12	-619.565E-3	24.7763E-3
480.315E-3	23.5379E-12	479.966E-3	480.315E-3	82.3213E-3	40.0538E-12	-612.296E-3	22.7057E-3
468.504E-3	23.0549E-12	468.174E-3	468.504E-3	121.258E-3	39.9876E-12	-597.474E-3	26.1222E-3
456.693E-3	22.0357E-12	456.361E-3	456.693E-3	14.0457E-3	39.9770E-12	-630.296E-3	25.2148E-3
444.882E-3	21.6329E-12	444.595E-3	444.882E-3	-74.8018E-3	39.9680E-12	-649.829E-3	27.5954E-3
433.071E-3	21.0935E-12	432.761E-3	433.071E-3	-17.7287E-3	40.0018E-12	-661.382E-3	27.8818E-3
421.260E-3	20.2413E-12	420.951E-3	421.260E-3	-19.1394E-3	39.8925E-12	-672.188E-3	30.4093E-3
409.449E-3	19.8948E-12	409.173E-3	409.449E-3	95.1370E-3	40.0403E-12	-650.987E-3	29.6058E-3
397.638E-3	19.4301E-12	397.318E-3	397.638E-3	41.6297E-3	40.0845E-12	-626.182E-3	23.2075E-3
385.827E-3	18.9205E-12	385.559E-3	385.827E-3	-56.1830E-3	39.9414E-12	-661.104E-3	26.0131E-3
374.016E-3	18.1639E-12	373.703E-3	374.016E-3	103.564E-3	39.9783E-12	-602.463E-3	26.6365E-3
362.205E-3	17.7049E-12	361.905E-3	362.205E-3	38.8448E-3	40.0500E-12	-630.903E-3	24.9461E-3
350.394E-3	16.9586E-12	350.153E-3	350.394E-3	66.4454E-3	39.9685E-12	-613.080E-3	28.9078E-3
338.583E-3	16.5421E-12	338.297E-3	338.583E-3	-124.730E-3	40.0230E-12	-663.046E-3	23.0063E-3
326.772E-3	15.9887E-12	326.513E-3	326.772E-3	-55.4014E-3	40.0385E-12	-649.881E-3	25.8412E-3
314.961E-3	15.4745E-12	314.683E-3	314.961E-3	68.8252E-3	40.0004E-12	-623.167E-3	26.8439E-3
303.150E-3	14.7275E-12	302.867E-3	303.150E-3	-63.8327E-3	40.0116E-12	-675.342E-3	24.9168E-3
291.339E-3	14.0598E-12	291.113E-3	291.339E-3	-43.5319E-3	39.9686E-12	-690.034E-3	25.8303E-3
279.528E-3	13.5629E-12	279.289E-3	279.528E-3	92.2546E-3	39.9340E-12	-621.798E-3	28.3536E-3
267.717E-3	12.9266E-12	267.476E-3	267.717E-3	-173.749E-3	40.0432E-12	-702.677E-3	27.1035E-3
255.906E-3	12.3494E-12	255.647E-3	255.906E-3	-9.18528E-3	40.0011E-12	-680.733E-3	24.2127E-3
244.094E-3	11.8268E-12	243.874E-3	244.094E-3	73.8560E-3	40.0731E-12	-657.154E-3	24.4846E-3
232.283E-3	11.3122E-12	232.023E-3	232.283E-3	-16.1924E-3	40.0150E-12	-685.946E-3	25.5843E-3
220.472E-3	10.6608E-12	220.191E-3	220.472E-3	-75.7292E-3	39.9856E-12	-723.185E-3	24.7805E-3
208.661E-3	9.83583E-12	208.416E-3	208.661E-3	1.43289E-3	40.0200E-12	-698.083E-3	26.2166E-3
196.850E-3	9.18567E-12	196.580E-3	196.850E-3	6.07434E-3	39.9353E-12	-710.998E-3	27.3586E-3
185.039E-3	8.76926E-12	184.814E-3	185.039E-3	30.3458E-3	40.0393E-12	-689.158E-3	26.4525E-3
173.228E-3	7.92798E-12	172.997E-3	173.228E-3	-39.6262E-3	40.0222E-12	-701.732E-3	26.6310E-3
161.417E-3	7.36983E-12	161.170E-3	161.417E-3	-100.649E-3	40.0619E-12	-725.871E-3	22.6423E-3
149.606E-3	6.69181E-12	149.351E-3	149.606E-3	-34.5915E-3	39.9320E-12	-731.112E-3	27.1865E-3
137.795E-3	6.13902E-12	137.567E-3	137.795E-3	-159.700E-3	40.0367E-12	-769.151E-3	23.3800E-3
125.984E-3	5.53721E-12	125.789E-3	125.984E-3	138.294E-3	40.0295E-12	-675.220E-3	24.6812E-3
114.173E-3	4.88129E-12	113.959E-3	114.173E-3	-86.6151E-3	40.0180E-12	-741.685E-3	26.0329E-3
102.362E-3	4.32818E-12	102.153E-3	102.362E-3	38.6686E-3	40.0116E-12	-739.117E-3	27.7413E-3
90.5512E-3	3.71560E-12	90.3451E-3	90.5512E-3	31.0178E-3	39.9382E-12	-727.858E-3	28.9662E-3
78.7402E-3	3.25772E-12	78.5124E-3	78.7402E-3	21.3611E-3	40.0106E-12	-752.419E-3	24.9565E-3
66.9291E-3	2.68772E-12	66.6409E-3	66.9291E-3	97.3752E-3	39.9884E-12	-727.545E-3	27.3066E-3
55.1181E-3	2.20441E-12	54.8629E-3	55.1181E-3	-783.119E-6	40.0898E-12	-765.923E-3	22.8842E-3
43.3071E-3	1.68984E-12	43.0480E-3	43.3071E-3	-44.8022E-3	39.9637E-12	-776.594E-3	28.4577E-3
31.4961E-3	1.21662E-12	31.2201E-3	31.4961E-3	-11.9370E-3	39.9631E-12	-756.930E-3	26.1099E-3
19.6850E-3	747.605E-15	19.4199E-3	19.6850E-3	74.6729E-3	39.9574E-12	-773.040E-3	27.8008E-3
7.87402E-3	250.735E-15	7.56591E-3	7.87402E-3	12.9279E-3	39.9956E-12	-789.568E-3	26.3455E-3
-3.93701E-3	-260.401E-15	-4.32587E-3	-3.93701E-3	-87.8334E-3	39.9110E-12	-796.928E-3	29.0801E-3
-15.7480E-3	-749.494E-15	-16.1126E-3	-15.7480E-3	19.9086E-3	40.1019E-12	-783.993E-3	24.2924E-3
-27.5591E-3	-1.21647E-12	-27.9208E-3	-27.5591E-3	-56.3710E-3	39.8958E-12	-778.790E-3	28.2247E-3
-39.3701E-3	-1.68641E-12	-39.6845E-3	-39.3701E-3	-140.786E-3	40.0005E-12	-841.705E-3	27.0729E-3
-51.1811E-3	-2.08957E-12	-51.5358E-3	-51.1811E-3	223.281E-3	39.9760E-12	-731.965E-3	29.7404E-3
-62.9921E-3	-2.55434E-12	-63.3071E-3	-62.9921E-3	-239.154E-3	40.0548E-12	-864.015E-3	23.8719E-3
-74.8032E-3	-2.81855E-12	-75.1462E-3	-74.8032E-3	85.1827E-3	39.9994E-12	-775.023E-3	25.9168E-3
-86.6142E-3	-2.99540E-12	-87.0024E-3	-86.6142E-3	33.9031E-3	39.9960E-12	-774.374E-3	27.5497E-3
-98.4252E-3	-3.20140E-12	-98.7801E-3	-98.4252E-3	-120.279E-3	39.9808E-12	-830.367E-3	26.8798E-3
-110.236E-3	-3.39508E-12	-110.643E-3	-110.236E-3	-93.4195E-3	40.0220E-12	-846.221E-3	25.5705E-3
-122.047E-3	-3.51789E-12	-122.385E-3	-122.047E-3	-30.6913E-3	39.9482E-12	-849.086E-3	31.5068E-3
-133.858E-3	-3.69644E-12	-134.240E-3	-133.858E-3	-233.460E-3	39.9788E-12	-933.436E-3	28.7098E-3
-145.669E-3	-3.81699E-12	-146.036E-3	-145.669E-3	81.0333E-3	40.0369E-12	-846.967E-3	28.0537E-3
-157.480E-3	-3.98682E-12	-157.804E-3	-157.480E-3	-126.709E-3	40.0270E-12	-911.886E-3	28.5236E-3
-169.291E-3	-4.08245E-12	-169.675E-3	-169.291E-3	61.7931E-3	39.9561E-12	-832.076E-3	26.6530E-3
-181.102E-3	-4.27392E-12	-181.417E-3	-181.102E-3	-55.0269E-3	40.0062E-12	-886.036E-3	26.5764E-3
-192.913E-3	-4.48592E-12	-193.227E-3	-192.913E-3	10.9995E-3	39.9898E-12	-864.538E-3	26.4463E-3
-204.724E-3	-4.60820E-12	-205.060E-3	-204.724E-3	-16.7837E-3	39.9857E-12	-878.080E-3	26.7835E-3
-216.535E-3	-4.86820E-12	-216.868E-3	-216.535E-3	79.9335E-3	39.9443E-12	-866.816E-3	27.3043E-3
-228.346E-3	-4.93125E-12	-228.675E-3	-228.346E-3	-8.79338E-3	39.9510E-12	-879.609E-3	29.1887E-3
-240.157E-3	-5.21848E-12	-240.483E-3	-240.157E-3	-70.4026E-3	40.0547E-12	-929.519E-3	24.7377E-3
-251.969E-3	-5.38849E-12	-252.301E-3	-251.969E-3	-35.8400E-3	39.9517E-12	-932.462E-3	27.0612E-3
-263.780E-3	-5.58530E-12	-264.064E-3	-263.780E-3	-30.7150E-3	40.0611E-12	-914.738E-3	23.6791E-3
-275.591E-3	-5.70775E-12	-275.875E-3	-275.591E-3	-89.6229E-3	39.9926E-12	-937.532E-3	28.4922E-3
-287.402E-3	-5.92293E-12	-287.724E-3	-287.402E-3	-173.052E-3	39.9490E-12	-1.00125E+0	28.9907E-3
-299.213E-3	-6.06004E-12	-299.505E-3	-299.213E-3	-96.2227E-3	39.9902E-12	-1.01361E+0	24.3985E-3
-311.024E-3	-6.26685E-12	-311.342E-3	-311.024E-3	-6.07471E-3	39.9787E-12	-967.149E-3	27.1759E-3
-322.835E-3	-6.56031E-12	-323.136E-3	-322.835E-3	145.300E-3	40.0077E-12	-933.784E-3	27.3483E-3
-334.646E-3	-6.70653E-12	-334.911E-3	-334.646E-3	136.193E-3	39.9354E-12	-911.213E-3	27.1849E-3
-346.457E-3	-6.92639E-12	-346.734E-3	-346.457E-3	-177.099E-3	40.0353E-12	-1.00122E+0	26.1204E-3
-358.268E-3	-7.12677E-12	-358.565E-3	-358.268E-3	-101.429E-3	39.9834E-12	-1.01690E+0	27.9173E-3
-370.079E-3	-7.33183E-12	-370.364E-3	-370.079E-3	-109.431E-3	40.0084E-12	-1.03447E+0	29.0253E-3
-381.890E-3	-7.66442E-12	-382.130E-3	-381.890E-3	105.982E-3	40.0543E-12	-987.032E-3	24.7160E-3
-393.701E-3	-7.83449E-12	-394.000E-3	-393.701E-3	-27.7877E-3	40.0462E-12	-1.01517E+0	25.9527E-3
-405.512E-3	-7.92360E-12	-405.817E-3	-405.512E-3	-30.9304E-3	40.0139E-12	-1.04029E+0	25.4245E-3
-417.323E-3	-8.05318E-12	-417.611E-3	-417.323E-3	-6.21316E-3	40.0725E-12	-1.04416E+0	23.5375E-3
-429.134E-3	-8.28728E-12	-429.422E-3	-429.134E-3	-81.4609E-3	39.9646E-12	-1.07812E+0	24.3035E-3
-440.945E-3	-8.48783E-12	-441.225E-3	-440.945E-3	13.7967E-3	39.9856E-12	-1.05628E+0	27.2764E-3
-452.756E-3	-8.58425E-12	-453.028E-3	-452.756E-3	8.94862E-3	40.0125E-12	-1.07764E+0	28.4568E-3
-464.567E-3	-8.65144E-12	-464.851E-3	-464.567E-3	-38.8573E-3	40.0400E-12	-1.08612E+0	25.8409E-3
-476.378E-3	-8.69261E-12	-476.679E-3	-476.378E-3	-43.7381E-3	39.9367E-12	-1.08811E+0	26.8870E-3
-488.189E-3	-8.94948E-12	-488.412E-3	-488.189E-3	-131.916E-3	39.9772E-12	-1.15016E+0	32.3236E-3
-500.000E-3	-9.04075E-12	-500.262E-3	-500.000E-3	17.9392E-3	40.0349E-12	-1.13067E+0	26.2210E-3
