Experiment	bias spectroscopy	
Date	01.12.2015 03:25:24	
User		
X (m)	280.763E-9	
Y (m)	-138.581E-9	
Z (m)	-4.07703E-9	
Z offset (m)	0E+0	
Settling time (s)	30E-3	
Integration time (s)	200E-3	
Z-Ctrl hold	TRUE	
Final Z (m)	-4.07703E-9	
Filter type	None	
Order		
Cutoff frq		
Current (A)	100.808E-12	
Z (m)	-4.07703E-9	
Phase (deg)	-748.215E-3	
Amplitude (m)	39.7575E-12	
Frequency Shift (Hz)	-1.27341E+0	
Excitation (V)	41.0854E-3	

[DATA]
Bias calc (V)	Current (A)	Applied Voltage measured (V)	Bias (V)	Phase (deg)	Amplitude (m)	Frequency Shift (Hz)	Excitation (V)
1.00000E+0	99.6529E-12	999.335E-3	1.00000E+0	-247.046E-3	39.9896E-12	-1.18942E+0	19.9870E-3
988.189E-3	99.3753E-12	987.531E-3	988.189E-3	38.8470E-3	40.1011E-12	-1.10092E+0	22.8913E-3
976.378E-3	97.9384E-12	975.776E-3	976.378E-3	58.0714E-3	39.9353E-12	-1.09947E+0	21.0846E-3
964.567E-3	97.2288E-12	963.900E-3	964.567E-3	96.6208E-3	40.2073E-12	-1.06552E+0	20.7758E-3
952.756E-3	96.0529E-12	952.149E-3	952.756E-3	-58.8895E-3	40.0054E-12	-1.07439E+0	23.6530E-3
940.945E-3	94.6054E-12	940.307E-3	940.945E-3	-91.3660E-3	39.9906E-12	-1.06408E+0	24.2223E-3
929.134E-3	94.3096E-12	928.481E-3	929.134E-3	-92.2870E-3	39.9620E-12	-1.05613E+0	23.4249E-3
917.323E-3	93.3289E-12	916.737E-3	917.323E-3	-52.1492E-3	40.0964E-12	-1.06586E+0	21.4868E-3
905.512E-3	92.4339E-12	904.879E-3	905.512E-3	-43.1603E-3	40.0227E-12	-1.07064E+0	22.5144E-3
893.701E-3	91.0390E-12	893.118E-3	893.701E-3	433.139E-3	39.8793E-12	-891.806E-3	27.5168E-3
881.890E-3	89.9962E-12	881.276E-3	881.890E-3	913.026E-6	39.9607E-12	-1.00387E+0	25.0714E-3
870.079E-3	89.0398E-12	869.476E-3	870.079E-3	-44.4276E-3	40.0059E-12	-1.02967E+0	20.7989E-3
858.268E-3	87.9012E-12	857.652E-3	858.268E-3	-76.1330E-3	39.9187E-12	-1.03553E+0	25.0616E-3
846.457E-3	87.4319E-12	845.830E-3	846.457E-3	206.068E-3	40.0863E-12	-941.952E-3	20.6705E-3
834.646E-3	86.4576E-12	834.048E-3	834.646E-3	-2.51883E-3	39.9126E-12	-990.400E-3	27.5380E-3
822.835E-3	85.3879E-12	822.239E-3	822.835E-3	-167.593E-3	40.0704E-12	-1.02425E+0	22.7551E-3
811.024E-3	84.0893E-12	810.413E-3	811.024E-3	-90.5464E-3	40.0020E-12	-1.05348E+0	20.6629E-3
799.213E-3	83.5405E-12	798.643E-3	799.213E-3	-50.9773E-3	40.0634E-12	-1.00775E+0	24.1741E-3
787.402E-3	82.1767E-12	786.811E-3	787.402E-3	120.984E-3	39.9550E-12	-955.645E-3	26.6529E-3
775.591E-3	80.7572E-12	775.023E-3	775.591E-3	-38.7171E-3	39.9901E-12	-999.775E-3	24.3334E-3
763.780E-3	79.8162E-12	763.188E-3	763.780E-3	105.152E-3	39.8936E-12	-955.805E-3	27.5395E-3
751.969E-3	78.4928E-12	751.412E-3	751.969E-3	1.07623E-3	39.9783E-12	-967.583E-3	25.8990E-3
740.157E-3	78.2226E-12	739.612E-3	740.157E-3	54.0287E-3	40.0558E-12	-968.748E-3	25.5054E-3
728.346E-3	77.2708E-12	727.776E-3	728.346E-3	4.50119E-3	39.8673E-12	-983.069E-3	25.3843E-3
716.535E-3	76.6928E-12	715.988E-3	716.535E-3	161.163E-3	40.0751E-12	-926.935E-3	23.7263E-3
704.724E-3	75.3149E-12	704.301E-3	704.724E-3	-66.2679E-3	40.0350E-12	-1.00124E+0	21.4465E-3
692.913E-3	73.6883E-12	692.497E-3	692.913E-3	-224.855E-3	39.9651E-12	-1.03576E+0	23.3609E-3
681.102E-3	72.6715E-12	680.715E-3	681.102E-3	-77.4987E-3	40.0145E-12	-1.06504E+0	18.7719E-3
669.291E-3	72.0748E-12	668.909E-3	669.291E-3	137.072E-3	39.9446E-12	-954.829E-3	25.9981E-3
657.480E-3	71.3987E-12	657.076E-3	657.480E-3	-37.2557E-3	40.0947E-12	-1.01476E+0	25.1511E-3
645.669E-3	70.4234E-12	645.270E-3	645.669E-3	81.3886E-3	40.0338E-12	-982.288E-3	23.8387E-3
633.858E-3	69.0381E-12	633.461E-3	633.858E-3	190.584E-3	39.9221E-12	-920.051E-3	29.1541E-3
622.047E-3	67.5993E-12	621.660E-3	622.047E-3	-73.0049E-3	40.0345E-12	-1.00484E+0	22.3602E-3
610.236E-3	66.7883E-12	609.888E-3	610.236E-3	-27.8978E-3	39.9641E-12	-1.00559E+0	26.4342E-3
598.425E-3	65.7161E-12	598.089E-3	598.425E-3	603.465E-6	40.0670E-12	-1.01147E+0	20.6503E-3
586.614E-3	64.5133E-12	586.269E-3	586.614E-3	1.63672E-3	40.0069E-12	-1.01445E+0	27.8701E-3
574.803E-3	63.2802E-12	574.450E-3	574.803E-3	12.6765E-3	40.0276E-12	-995.386E-3	25.7784E-3
562.992E-3	62.3362E-12	562.671E-3	562.992E-3	-50.6075E-3	40.0309E-12	-1.01924E+0	17.2399E-3
551.181E-3	60.8967E-12	550.866E-3	551.181E-3	13.9298E-3	39.9290E-12	-1.01065E+0	24.9292E-3
539.370E-3	60.1715E-12	538.997E-3	539.370E-3	-14.7424E-3	40.0336E-12	-1.01358E+0	23.3518E-3
527.559E-3	58.8807E-12	527.213E-3	527.559E-3	-108.939E-3	40.0100E-12	-1.07075E+0	21.8401E-3
515.748E-3	57.8354E-12	515.377E-3	515.748E-3	188.512E-3	39.9992E-12	-953.941E-3	25.4021E-3
503.937E-3	57.0661E-12	503.591E-3	503.937E-3	-277.444E-3	40.1184E-12	-1.10901E+0	21.6711E-3
492.126E-3	53.3523E-12	491.762E-3	492.126E-3	15.5393E-3	40.0255E-12	-1.04992E+0	22.6418E-3
480.315E-3	51.8871E-12	479.959E-3	480.315E-3	43.6323E-3	39.9553E-12	-1.06885E+0	22.9161E-3
468.504E-3	52.1669E-12	468.161E-3	468.504E-3	-38.1479E-3	40.0081E-12	-1.09137E+0	25.5742E-3
456.693E-3	50.3567E-12	456.351E-3	456.693E-3	27.1338E-3	40.0142E-12	-1.06017E+0	23.9142E-3
444.882E-3	49.3450E-12	444.585E-3	444.882E-3	10.5186E-3	39.9330E-12	-1.05695E+0	25.0689E-3
433.071E-3	47.7154E-12	432.747E-3	433.071E-3	137.738E-3	39.9905E-12	-1.01396E+0	24.7250E-3
421.260E-3	47.4028E-12	420.929E-3	421.260E-3	104.179E-3	40.0455E-12	-1.01760E+0	25.6490E-3
409.449E-3	45.2749E-12	409.147E-3	409.449E-3	6.63184E-3	39.9982E-12	-1.04978E+0	25.9339E-3
397.638E-3	43.4140E-12	397.295E-3	397.638E-3	-34.4577E-3	40.0041E-12	-1.06673E+0	22.6216E-3
385.827E-3	42.4759E-12	385.539E-3	385.827E-3	-27.1039E-3	39.9799E-12	-1.06393E+0	28.2457E-3
374.016E-3	41.0431E-12	373.696E-3	374.016E-3	69.0801E-3	40.0302E-12	-1.04347E+0	25.2210E-3
362.205E-3	42.0199E-12	361.905E-3	362.205E-3	-106.305E-3	39.9694E-12	-1.09831E+0	24.6539E-3
350.394E-3	39.3820E-12	350.151E-3	350.394E-3	25.8488E-3	40.0338E-12	-1.07775E+0	22.7222E-3
338.583E-3	36.6276E-12	338.287E-3	338.583E-3	-28.3700E-3	39.9192E-12	-1.10832E+0	28.1585E-3
326.772E-3	35.6150E-12	326.495E-3	326.772E-3	-245.871E-3	40.0193E-12	-1.17640E+0	23.6177E-3
314.961E-3	34.4926E-12	314.669E-3	314.961E-3	28.8847E-3	39.9846E-12	-1.09891E+0	26.7247E-3
303.150E-3	33.0634E-12	302.856E-3	303.150E-3	22.7801E-3	39.9455E-12	-1.08196E+0	25.4997E-3
291.339E-3	31.6292E-12	291.106E-3	291.339E-3	154.369E-3	40.0312E-12	-1.04013E+0	26.1762E-3
279.528E-3	30.4258E-12	279.280E-3	279.528E-3	-178.373E-3	39.9364E-12	-1.16863E+0	24.0352E-3
267.717E-3	29.2743E-12	267.458E-3	267.717E-3	27.3631E-3	39.9428E-12	-1.12515E+0	26.9288E-3
255.906E-3	27.5756E-12	255.638E-3	255.906E-3	39.4137E-3	40.0403E-12	-1.10741E+0	25.1755E-3
244.094E-3	26.8315E-12	243.866E-3	244.094E-3	-24.3042E-3	39.9465E-12	-1.14139E+0	30.0775E-3
232.283E-3	25.5103E-12	232.004E-3	232.283E-3	-72.3062E-3	40.0444E-12	-1.15899E+0	26.3890E-3
220.472E-3	24.2624E-12	220.174E-3	220.472E-3	161.330E-3	40.0086E-12	-1.10551E+0	26.3361E-3
208.661E-3	23.0844E-12	208.406E-3	208.661E-3	2.85520E-3	39.9999E-12	-1.15723E+0	25.7910E-3
196.850E-3	21.7385E-12	196.568E-3	196.850E-3	-122.521E-3	40.0598E-12	-1.19501E+0	23.3792E-3
185.039E-3	20.1001E-12	184.794E-3	185.039E-3	181.506E-3	39.9851E-12	-1.11578E+0	25.9504E-3
173.228E-3	19.1766E-12	172.992E-3	173.228E-3	-119.609E-3	39.9715E-12	-1.21684E+0	27.6195E-3
161.417E-3	17.8753E-12	161.148E-3	161.417E-3	89.3707E-3	40.0209E-12	-1.16440E+0	26.8804E-3
149.606E-3	16.4084E-12	149.334E-3	149.606E-3	-104.196E-3	39.9798E-12	-1.24882E+0	27.7429E-3
137.795E-3	14.8785E-12	137.538E-3	137.795E-3	280.486E-3	39.9975E-12	-1.12818E+0	24.8503E-3
125.984E-3	13.6630E-12	125.773E-3	125.984E-3	-94.4426E-3	40.0403E-12	-1.24589E+0	25.2929E-3
114.173E-3	12.1464E-12	113.943E-3	114.173E-3	72.3477E-3	39.9463E-12	-1.20575E+0	26.8172E-3
102.362E-3	11.1736E-12	102.132E-3	102.362E-3	-662.561E-6	40.0073E-12	-1.21848E+0	26.3028E-3
90.5512E-3	9.83323E-12	90.3304E-3	90.5512E-3	-80.2455E-3	39.9762E-12	-1.23994E+0	26.9620E-3
78.7402E-3	8.63941E-12	78.4856E-3	78.7402E-3	22.3672E-3	40.0527E-12	-1.22793E+0	23.7698E-3
66.9291E-3	7.27745E-12	66.6162E-3	66.9291E-3	-136.476E-3	40.0310E-12	-1.34020E+0	25.2393E-3
55.1181E-3	5.89745E-12	54.8469E-3	55.1181E-3	1.11099E-3	40.0036E-12	-1.29904E+0	27.3027E-3
43.3071E-3	4.61738E-12	43.0328E-3	43.3071E-3	134.672E-3	39.9941E-12	-1.24860E+0	25.5490E-3
31.4961E-3	3.31863E-12	31.1965E-3	31.4961E-3	12.8887E-3	39.9684E-12	-1.27626E+0	27.6023E-3
19.6850E-3	1.97822E-12	19.4079E-3	19.6850E-3	9.06650E-3	39.9763E-12	-1.27899E+0	29.6696E-3
7.87402E-3	770.941E-15	7.55177E-3	7.87402E-3	-5.62654E-3	40.0002E-12	-1.28297E+0	26.4937E-3
-3.93701E-3	-483.796E-15	-4.33247E-3	-3.93701E-3	-152.474E-3	39.9586E-12	-1.35672E+0	25.0981E-3
-15.7480E-3	-1.81553E-12	-16.1182E-3	-15.7480E-3	33.6420E-3	39.9564E-12	-1.33931E+0	29.3702E-3
-27.5591E-3	-3.26253E-12	-27.9295E-3	-27.5591E-3	-41.9688E-3	40.0772E-12	-1.37074E+0	26.3818E-3
-39.3701E-3	-4.65975E-12	-39.6961E-3	-39.3701E-3	6.23816E-3	39.9918E-12	-1.34264E+0	27.5941E-3
-51.1811E-3	-5.99556E-12	-51.5545E-3	-51.1811E-3	17.6988E-3	40.0846E-12	-1.34746E+0	23.8555E-3
-62.9921E-3	-7.30402E-12	-63.3258E-3	-62.9921E-3	-107.529E-3	39.9772E-12	-1.40337E+0	28.8534E-3
-74.8032E-3	-8.18050E-12	-75.1638E-3	-74.8032E-3	213.814E-3	39.9745E-12	-1.29951E+0	24.3180E-3
-86.6142E-3	-8.97549E-12	-87.0209E-3	-86.6142E-3	-218.747E-3	40.0172E-12	-1.44518E+0	26.1659E-3
-98.4252E-3	-9.58038E-12	-98.7846E-3	-98.4252E-3	40.4589E-3	40.0136E-12	-1.37823E+0	25.9703E-3
-110.236E-3	-10.4547E-12	-110.654E-3	-110.236E-3	-111.075E-3	40.0453E-12	-1.43298E+0	27.0434E-3
-122.047E-3	-11.1828E-12	-122.392E-3	-122.047E-3	-209.834E-3	40.0118E-12	-1.48568E+0	25.3574E-3
-133.858E-3	-12.2399E-12	-134.234E-3	-133.858E-3	152.490E-3	40.0307E-12	-1.39127E+0	26.7107E-3
-145.669E-3	-12.9732E-12	-146.036E-3	-145.669E-3	-167.047E-3	39.9266E-12	-1.49895E+0	30.0138E-3
-157.480E-3	-14.2435E-12	-157.819E-3	-157.480E-3	38.9219E-3	40.0687E-12	-1.44806E+0	25.8269E-3
-169.291E-3	-14.8693E-12	-169.691E-3	-169.291E-3	4.78724E-3	39.8974E-12	-1.43493E+0	28.9202E-3
-181.102E-3	-16.1498E-12	-181.430E-3	-181.102E-3	-48.6075E-3	40.0398E-12	-1.48936E+0	26.8474E-3
-192.913E-3	-17.1427E-12	-193.248E-3	-192.913E-3	70.8949E-3	40.0026E-12	-1.46440E+0	25.5426E-3
-204.724E-3	-17.9115E-12	-205.081E-3	-204.724E-3	-117.379E-3	39.9572E-12	-1.52421E+0	24.6299E-3
-216.535E-3	-18.7993E-12	-216.884E-3	-216.535E-3	40.5799E-3	40.0453E-12	-1.50795E+0	25.0322E-3
-228.346E-3	-19.8726E-12	-228.700E-3	-228.346E-3	-37.5382E-3	39.9568E-12	-1.53487E+0	25.9409E-3
-240.157E-3	-21.0489E-12	-240.495E-3	-240.157E-3	-83.1647E-3	39.9686E-12	-1.53066E+0	28.5075E-3
-251.969E-3	-22.0935E-12	-252.317E-3	-251.969E-3	-120.802E-3	40.0839E-12	-1.58177E+0	22.9733E-3
-263.780E-3	-22.9480E-12	-264.092E-3	-263.780E-3	-56.1065E-3	39.9130E-12	-1.59098E+0	28.3048E-3
-275.591E-3	-23.9346E-12	-275.898E-3	-275.591E-3	-19.5774E-3	40.0279E-12	-1.59033E+0	27.3395E-3
-287.402E-3	-25.1589E-12	-287.743E-3	-287.402E-3	-73.0841E-3	39.9638E-12	-1.60201E+0	25.0802E-3
-299.213E-3	-26.4786E-12	-299.530E-3	-299.213E-3	54.0008E-3	40.0244E-12	-1.58411E+0	26.2892E-3
-311.024E-3	-27.7627E-12	-311.359E-3	-311.024E-3	97.4416E-3	40.0477E-12	-1.57369E+0	24.9634E-3
-322.835E-3	-28.6754E-12	-323.160E-3	-322.835E-3	-67.4730E-3	40.0333E-12	-1.63090E+0	26.3744E-3
-334.646E-3	-29.6749E-12	-334.934E-3	-334.646E-3	-54.7659E-3	39.9678E-12	-1.64378E+0	28.7454E-3
-346.457E-3	-30.6085E-12	-346.750E-3	-346.457E-3	29.8141E-3	40.0082E-12	-1.64337E+0	27.3965E-3
-358.268E-3	-31.8982E-12	-358.587E-3	-358.268E-3	17.8326E-3	39.9731E-12	-1.66337E+0	28.4286E-3
-370.079E-3	-33.3826E-12	-370.381E-3	-370.079E-3	-106.191E-3	40.0088E-12	-1.70304E+0	26.2848E-3
-381.890E-3	-34.4459E-12	-382.152E-3	-381.890E-3	10.8468E-3	39.9115E-12	-1.65244E+0	27.8709E-3
-393.701E-3	-35.1169E-12	-394.013E-3	-393.701E-3	-93.0393E-3	40.0538E-12	-1.73725E+0	28.4248E-3
-405.512E-3	-36.0073E-12	-405.829E-3	-405.512E-3	116.486E-3	40.0210E-12	-1.69603E+0	24.9695E-3
-417.323E-3	-37.1139E-12	-417.625E-3	-417.323E-3	-185.865E-3	40.0238E-12	-1.81224E+0	27.7756E-3
-429.134E-3	-38.8145E-12	-429.441E-3	-429.134E-3	-48.5608E-3	39.9583E-12	-1.78202E+0	27.5547E-3
-440.945E-3	-39.8948E-12	-441.245E-3	-440.945E-3	-117.258E-3	39.9785E-12	-1.83879E+0	30.0819E-3
-452.756E-3	-41.5646E-12	-453.052E-3	-452.756E-3	-33.0425E-3	39.9737E-12	-1.82679E+0	29.5734E-3
-464.567E-3	-43.4097E-12	-464.867E-3	-464.567E-3	45.5026E-3	40.0723E-12	-1.79993E+0	26.0636E-3
-476.378E-3	-44.3631E-12	-476.698E-3	-476.378E-3	-83.2070E-3	39.9749E-12	-1.84875E+0	25.7592E-3
-488.189E-3	-46.0647E-12	-488.425E-3	-488.189E-3	-72.4396E-3	39.9148E-12	-1.85300E+0	30.8734E-3
-500.000E-3	-47.5046E-12	-500.258E-3	-500.000E-3	-74.5945E-3	39.9664E-12	-1.87500E+0	28.4035E-3
