Experiment	bias spectroscopy	
Date	01.12.2015 01:44:34	
User		
X (m)	280.724E-9	
Y (m)	-139.145E-9	
Z (m)	-4.07703E-9	
Z offset (m)	0E+0	
Settling time (s)	30E-3	
Integration time (s)	200E-3	
Z-Ctrl hold	TRUE	
Final Z (m)	-4.07703E-9	
Filter type	None	
Order		
Cutoff frq		
Current (A)	81.1389E-12	
Z (m)	-4.07703E-9	
Phase (deg)	-547.187E-3	
Amplitude (m)	39.6918E-12	
Frequency Shift (Hz)	-1.23356E+0	
Excitation (V)	26.1959E-3	

[DATA]
Bias calc (V)	Current (A)	Applied Voltage measured (V)	Bias (V)	Phase (deg)	Amplitude (m)	Frequency Shift (Hz)	Excitation (V)
1.00000E+0	81.1931E-12	999.333E-3	1.00000E+0	-145.716E-3	39.9850E-12	-1.16194E+0	22.6683E-3
988.189E-3	79.9474E-12	987.539E-3	988.189E-3	161.254E-3	39.9220E-12	-1.07820E+0	25.4297E-3
976.378E-3	80.0046E-12	975.773E-3	976.378E-3	-41.9082E-3	40.1854E-12	-1.14184E+0	20.4413E-3
964.567E-3	78.7560E-12	963.909E-3	964.567E-3	114.706E-3	39.8913E-12	-1.07156E+0	27.6146E-3
952.756E-3	77.9073E-12	952.153E-3	952.756E-3	112.479E-3	39.9222E-12	-1.05850E+0	24.2196E-3
940.945E-3	78.1535E-12	940.310E-3	940.945E-3	-352.701E-3	40.0746E-12	-1.20362E+0	20.6289E-3
929.134E-3	77.0710E-12	928.491E-3	929.134E-3	200.615E-3	40.0907E-12	-1.04591E+0	24.8263E-3
917.323E-3	76.4579E-12	916.736E-3	917.323E-3	60.4335E-3	40.0053E-12	-1.09717E+0	18.7319E-3
905.512E-3	76.0946E-12	904.877E-3	905.512E-3	-99.3978E-3	40.1107E-12	-1.13749E+0	23.0563E-3
893.701E-3	74.7916E-12	893.122E-3	893.701E-3	106.125E-3	39.8578E-12	-1.07737E+0	25.3535E-3
881.890E-3	74.4417E-12	881.286E-3	881.890E-3	-52.6736E-3	40.2329E-12	-1.08754E+0	19.9744E-3
870.079E-3	73.1499E-12	869.480E-3	870.079E-3	-130.641E-3	39.9328E-12	-1.12694E+0	24.5305E-3
858.268E-3	72.3782E-12	857.646E-3	858.268E-3	144.966E-3	39.9458E-12	-1.00229E+0	27.8139E-3
846.457E-3	72.5607E-12	845.819E-3	846.457E-3	136.428E-3	40.0780E-12	-1.00349E+0	22.1893E-3
834.646E-3	71.2039E-12	834.047E-3	834.646E-3	-288.595E-3	40.0207E-12	-1.13165E+0	22.3662E-3
822.835E-3	71.1859E-12	822.229E-3	822.835E-3	67.1807E-3	40.0818E-12	-1.10119E+0	21.7364E-3
811.024E-3	70.1430E-12	810.398E-3	811.024E-3	40.7449E-3	39.9387E-12	-1.09225E+0	26.2645E-3
799.213E-3	68.9754E-12	798.636E-3	799.213E-3	264.304E-3	40.0076E-12	-965.129E-3	25.2964E-3
787.402E-3	68.3317E-12	786.808E-3	787.402E-3	-21.6214E-3	40.0459E-12	-1.05284E+0	19.0594E-3
775.591E-3	67.2073E-12	775.018E-3	775.591E-3	-90.2441E-3	39.9626E-12	-1.07803E+0	24.0052E-3
763.780E-3	66.5843E-12	763.186E-3	763.780E-3	107.618E-3	40.0009E-12	-995.114E-3	24.1497E-3
751.969E-3	66.7131E-12	751.412E-3	751.969E-3	-111.557E-3	40.1067E-12	-1.07681E+0	22.3563E-3
740.157E-3	65.3255E-12	739.606E-3	740.157E-3	57.1366E-3	39.9030E-12	-1.02656E+0	24.1284E-3
728.346E-3	64.0987E-12	727.780E-3	728.346E-3	46.0791E-3	39.8840E-12	-1.02015E+0	26.9470E-3
716.535E-3	63.9103E-12	715.984E-3	716.535E-3	-260.422E-3	39.9994E-12	-1.12611E+0	26.6929E-3
704.724E-3	63.0896E-12	704.292E-3	704.724E-3	327.817E-3	40.0691E-12	-941.131E-3	23.4455E-3
692.913E-3	62.3641E-12	692.498E-3	692.913E-3	-122.030E-3	40.0650E-12	-1.06086E+0	25.9304E-3
681.102E-3	61.3171E-12	680.727E-3	681.102E-3	18.6110E-3	40.0009E-12	-1.03068E+0	25.0688E-3
669.291E-3	60.0512E-12	668.897E-3	669.291E-3	50.9174E-3	39.8589E-12	-1.04347E+0	28.1346E-3
657.480E-3	60.2384E-12	657.066E-3	657.480E-3	64.2486E-3	40.0909E-12	-1.01747E+0	22.5462E-3
645.669E-3	58.2653E-12	645.266E-3	645.669E-3	132.855E-3	39.8834E-12	-974.768E-3	29.1445E-3
633.858E-3	58.2268E-12	633.461E-3	633.858E-3	101.566E-3	40.0183E-12	-961.034E-3	26.2162E-3
622.047E-3	57.1035E-12	621.657E-3	622.047E-3	-101.688E-3	40.0300E-12	-1.02516E+0	24.2897E-3
610.236E-3	55.9763E-12	609.879E-3	610.236E-3	-175.567E-3	39.9533E-12	-1.08361E+0	24.1933E-3
598.425E-3	55.4680E-12	598.073E-3	598.425E-3	84.6201E-3	40.0696E-12	-1.01202E+0	20.4324E-3
586.614E-3	54.1652E-12	586.266E-3	586.614E-3	34.4540E-3	39.9172E-12	-1.02954E+0	25.5905E-3
574.803E-3	53.6793E-12	574.440E-3	574.803E-3	47.0837E-3	40.0208E-12	-1.01160E+0	22.5144E-3
562.992E-3	53.2306E-12	562.665E-3	562.992E-3	-36.1415E-3	40.0254E-12	-1.03482E+0	24.3759E-3
551.181E-3	51.5102E-12	550.853E-3	551.181E-3	9.00433E-3	40.0003E-12	-1.04050E+0	24.8111E-3
539.370E-3	51.2157E-12	538.982E-3	539.370E-3	45.2745E-3	39.9927E-12	-1.04346E+0	26.8310E-3
527.559E-3	50.2930E-12	527.197E-3	527.559E-3	213.783E-3	40.0869E-12	-964.451E-3	25.0429E-3
515.748E-3	48.9054E-12	515.371E-3	515.748E-3	-9.99230E-3	40.0105E-12	-1.02363E+0	25.5560E-3
503.937E-3	48.1560E-12	503.582E-3	503.937E-3	-31.3687E-3	39.9804E-12	-1.04503E+0	25.8960E-3
492.126E-3	47.5212E-12	491.757E-3	492.126E-3	107.700E-3	40.0883E-12	-987.695E-3	22.8339E-3
480.315E-3	46.2457E-12	479.951E-3	480.315E-3	13.6340E-3	40.0070E-12	-1.01977E+0	23.1976E-3
468.504E-3	45.6466E-12	468.163E-3	468.504E-3	43.9569E-3	40.0628E-12	-1.02544E+0	20.6376E-3
456.693E-3	44.0753E-12	456.347E-3	456.693E-3	-6.45836E-3	39.9635E-12	-1.05130E+0	24.9279E-3
444.882E-3	43.3432E-12	444.573E-3	444.882E-3	3.98348E-3	40.0208E-12	-1.03370E+0	23.1860E-3
433.071E-3	41.9741E-12	432.747E-3	433.071E-3	98.8922E-3	39.9817E-12	-997.886E-3	24.4790E-3
421.260E-3	41.1801E-12	420.939E-3	421.260E-3	-60.6235E-3	40.0396E-12	-1.06102E+0	22.8404E-3
409.449E-3	40.1402E-12	409.157E-3	409.449E-3	-32.2609E-3	40.0615E-12	-1.08674E+0	20.1120E-3
397.638E-3	38.7253E-12	397.306E-3	397.638E-3	45.9367E-3	39.9975E-12	-1.05312E+0	23.8257E-3
385.827E-3	37.7974E-12	385.550E-3	385.827E-3	110.531E-3	40.0113E-12	-1.04200E+0	24.9077E-3
374.016E-3	36.7147E-12	373.694E-3	374.016E-3	43.0032E-3	39.9921E-12	-1.03853E+0	26.0418E-3
362.205E-3	35.6303E-12	361.894E-3	362.205E-3	16.0041E-3	40.0588E-12	-1.05243E+0	23.0108E-3
350.394E-3	34.6709E-12	350.151E-3	350.394E-3	-111.741E-3	39.9342E-12	-1.09747E+0	24.6215E-3
338.583E-3	33.6555E-12	338.293E-3	338.583E-3	4.62539E-3	39.9984E-12	-1.08194E+0	26.2661E-3
326.772E-3	32.8225E-12	326.505E-3	326.772E-3	183.977E-3	40.1016E-12	-999.363E-3	24.8477E-3
314.961E-3	31.4568E-12	314.673E-3	314.961E-3	-173.068E-3	40.0169E-12	-1.09757E+0	21.4482E-3
303.150E-3	30.3743E-12	302.855E-3	303.150E-3	-35.8614E-3	39.9402E-12	-1.06103E+0	25.8086E-3
291.339E-3	29.4538E-12	291.107E-3	291.339E-3	83.5154E-3	40.0132E-12	-1.02277E+0	26.9753E-3
279.528E-3	28.4607E-12	279.278E-3	279.528E-3	-22.5535E-3	40.0211E-12	-1.08553E+0	24.0369E-3
267.717E-3	27.4263E-12	267.462E-3	267.717E-3	-29.6875E-3	40.0440E-12	-1.10825E+0	23.6427E-3
255.906E-3	26.1462E-12	255.639E-3	255.906E-3	8.35890E-3	39.9916E-12	-1.10345E+0	23.8984E-3
244.094E-3	25.2162E-12	243.864E-3	244.094E-3	124.615E-3	40.0179E-12	-1.06287E+0	27.8385E-3
232.283E-3	23.9351E-12	232.013E-3	232.283E-3	-37.0081E-3	40.0217E-12	-1.10453E+0	24.7837E-3
220.472E-3	22.3964E-12	220.183E-3	220.472E-3	-195.156E-3	40.0536E-12	-1.16688E+0	25.0105E-3
208.661E-3	21.4516E-12	208.403E-3	208.661E-3	-184.586E-3	39.9744E-12	-1.20365E+0	26.1719E-3
196.850E-3	19.8481E-12	196.570E-3	196.850E-3	-7.80329E-3	39.9070E-12	-1.16754E+0	27.5186E-3
185.039E-3	19.1489E-12	184.797E-3	185.039E-3	-7.54619E-3	40.0876E-12	-1.15720E+0	21.8473E-3
173.228E-3	18.1136E-12	172.982E-3	173.228E-3	-124.453E-3	39.9840E-12	-1.19493E+0	25.8328E-3
161.417E-3	16.5298E-12	161.154E-3	161.417E-3	142.098E-3	39.9845E-12	-1.11948E+0	28.3840E-3
149.606E-3	15.1429E-12	149.331E-3	149.606E-3	-91.4113E-3	39.9939E-12	-1.19417E+0	23.8107E-3
137.795E-3	13.9419E-12	137.536E-3	137.795E-3	-21.5439E-3	39.9913E-12	-1.19331E+0	26.4231E-3
125.984E-3	12.8048E-12	125.768E-3	125.984E-3	85.5088E-3	40.0679E-12	-1.14566E+0	23.5742E-3
114.173E-3	11.5673E-12	113.932E-3	114.173E-3	110.445E-3	40.0208E-12	-1.13719E+0	22.5189E-3
102.362E-3	10.3801E-12	102.136E-3	102.362E-3	-91.9757E-3	40.0711E-12	-1.22612E+0	26.9319E-3
90.5512E-3	8.99154E-12	90.3324E-3	90.5512E-3	-18.4753E-3	39.9522E-12	-1.21101E+0	25.9450E-3
78.7402E-3	7.99019E-12	78.4951E-3	78.7402E-3	26.4611E-3	40.0151E-12	-1.22704E+0	26.7214E-3
66.9291E-3	6.69531E-12	66.6227E-3	66.9291E-3	107.157E-3	40.0211E-12	-1.18511E+0	24.9871E-3
55.1181E-3	5.53425E-12	54.8447E-3	55.1181E-3	-7.55920E-3	39.9551E-12	-1.21859E+0	26.7800E-3
43.3071E-3	4.28103E-12	43.0294E-3	43.3071E-3	-31.6257E-3	39.9745E-12	-1.22714E+0	25.2789E-3
31.4961E-3	3.04287E-12	31.1993E-3	31.4961E-3	-69.4724E-3	40.0345E-12	-1.24844E+0	25.2185E-3
19.6850E-3	1.86068E-12	19.4092E-3	19.6850E-3	36.5224E-3	39.9643E-12	-1.24799E+0	26.5308E-3
7.87402E-3	719.740E-15	7.55079E-3	7.87402E-3	65.5582E-3	40.0722E-12	-1.25974E+0	24.4774E-3
-3.93701E-3	-436.754E-15	-4.32472E-3	-3.93701E-3	13.3562E-3	39.8942E-12	-1.27265E+0	28.0406E-3
-15.7480E-3	-1.68677E-12	-16.1193E-3	-15.7480E-3	-57.8350E-3	40.0029E-12	-1.31162E+0	27.0734E-3
-27.5591E-3	-2.86671E-12	-27.9335E-3	-27.5591E-3	-37.3577E-3	39.9861E-12	-1.31219E+0	25.5594E-3
-39.3701E-3	-4.03391E-12	-39.7067E-3	-39.3701E-3	-81.8216E-3	39.9949E-12	-1.33103E+0	26.4968E-3
-51.1811E-3	-5.13376E-12	-51.5653E-3	-51.1811E-3	-124.279E-3	40.0502E-12	-1.36743E+0	24.8004E-3
-62.9921E-3	-6.29383E-12	-63.3309E-3	-62.9921E-3	26.6749E-3	40.0605E-12	-1.34401E+0	22.8698E-3
-74.8032E-3	-6.98168E-12	-75.1707E-3	-74.8032E-3	32.4431E-3	39.8796E-12	-1.33044E+0	29.1916E-3
-86.6142E-3	-7.56452E-12	-87.0280E-3	-86.6142E-3	-56.8207E-3	40.0489E-12	-1.36281E+0	25.8874E-3
-98.4252E-3	-8.03992E-12	-98.7934E-3	-98.4252E-3	134.433E-3	39.9502E-12	-1.31573E+0	28.7576E-3
-110.236E-3	-8.69629E-12	-110.639E-3	-110.236E-3	-141.115E-3	40.0500E-12	-1.42245E+0	27.7236E-3
-122.047E-3	-9.25213E-12	-122.384E-3	-122.047E-3	-121.130E-3	39.9577E-12	-1.43077E+0	26.0719E-3
-133.858E-3	-9.99720E-12	-134.241E-3	-133.858E-3	-38.7648E-3	39.9753E-12	-1.38792E+0	27.6294E-3
-145.669E-3	-10.4533E-12	-146.045E-3	-145.669E-3	-77.4729E-3	39.9698E-12	-1.42625E+0	26.6658E-3
-157.480E-3	-11.0459E-12	-157.817E-3	-157.480E-3	-48.7604E-3	39.9798E-12	-1.42930E+0	29.2164E-3
-169.291E-3	-11.7302E-12	-169.686E-3	-169.291E-3	-32.0727E-3	39.9875E-12	-1.43510E+0	26.7077E-3
-181.102E-3	-12.4678E-12	-181.436E-3	-181.102E-3	-77.2209E-3	40.0590E-12	-1.45901E+0	27.0033E-3
-192.913E-3	-13.1507E-12	-193.239E-3	-192.913E-3	-87.3593E-3	40.0096E-12	-1.47163E+0	25.2102E-3
-204.724E-3	-13.8376E-12	-205.068E-3	-204.724E-3	68.3947E-3	40.0624E-12	-1.45080E+0	25.6396E-3
-216.535E-3	-14.4019E-12	-216.867E-3	-216.535E-3	21.9440E-3	40.0430E-12	-1.45988E+0	24.9820E-3
-228.346E-3	-14.9112E-12	-228.691E-3	-228.346E-3	-31.5519E-3	39.9556E-12	-1.47478E+0	29.2798E-3
-240.157E-3	-16.1476E-12	-240.488E-3	-240.157E-3	26.7137E-3	40.0688E-12	-1.43652E+0	24.9036E-3
-251.969E-3	-16.7173E-12	-252.308E-3	-251.969E-3	-142.971E-3	40.0170E-12	-1.51279E+0	24.1691E-3
-263.780E-3	-17.4671E-12	-264.084E-3	-263.780E-3	-20.7211E-3	39.9528E-12	-1.50236E+0	27.5016E-3
-275.591E-3	-18.1845E-12	-275.890E-3	-275.591E-3	-52.1401E-3	39.9315E-12	-1.52834E+0	29.4032E-3
-287.402E-3	-19.1348E-12	-287.727E-3	-287.402E-3	8.72336E-3	39.9239E-12	-1.51416E+0	29.6853E-3
-299.213E-3	-19.8220E-12	-299.516E-3	-299.213E-3	-21.4757E-3	40.0386E-12	-1.53587E+0	28.9890E-3
-311.024E-3	-20.5763E-12	-311.346E-3	-311.024E-3	44.2297E-3	39.9330E-12	-1.51995E+0	31.5195E-3
-322.835E-3	-21.4987E-12	-323.146E-3	-322.835E-3	-46.4003E-3	40.0635E-12	-1.56433E+0	26.0887E-3
-334.646E-3	-22.0917E-12	-334.913E-3	-334.646E-3	-79.7830E-3	40.0376E-12	-1.62483E+0	24.9865E-3
-346.457E-3	-22.6978E-12	-346.729E-3	-346.457E-3	100.231E-3	40.0075E-12	-1.58032E+0	26.0906E-3
-358.268E-3	-23.3838E-12	-358.568E-3	-358.268E-3	-32.8391E-3	39.9490E-12	-1.61720E+0	27.8522E-3
-370.079E-3	-24.2622E-12	-370.361E-3	-370.079E-3	59.9563E-3	40.0272E-12	-1.60246E+0	27.6465E-3
-381.890E-3	-24.8234E-12	-382.144E-3	-381.890E-3	2.78189E-3	40.0494E-12	-1.62485E+0	26.1269E-3
-393.701E-3	-25.7007E-12	-394.018E-3	-393.701E-3	-146.525E-3	40.0351E-12	-1.68228E+0	26.4092E-3
-405.512E-3	-26.1087E-12	-405.825E-3	-405.512E-3	-14.2201E-3	39.9222E-12	-1.64795E+0	28.2835E-3
-417.323E-3	-26.9105E-12	-417.625E-3	-417.323E-3	554.161E-6	40.0173E-12	-1.65863E+0	26.0016E-3
-429.134E-3	-27.3112E-12	-429.427E-3	-429.134E-3	9.84518E-3	39.9734E-12	-1.64631E+0	27.3212E-3
-440.945E-3	-28.3561E-12	-441.232E-3	-440.945E-3	-261.059E-3	40.0453E-12	-1.78245E+0	25.5291E-3
-452.756E-3	-28.7888E-12	-453.040E-3	-452.756E-3	2.55539E-3	39.9990E-12	-1.72111E+0	27.2026E-3
-464.567E-3	-29.9405E-12	-464.862E-3	-464.567E-3	-84.1471E-3	40.0194E-12	-1.75372E+0	26.4652E-3
-476.378E-3	-31.2133E-12	-476.689E-3	-476.378E-3	28.6320E-3	40.0492E-12	-1.74643E+0	25.2959E-3
-488.189E-3	-31.8570E-12	-488.415E-3	-488.189E-3	-69.4741E-3	39.9571E-12	-1.77003E+0	27.9261E-3
-500.000E-3	-33.2214E-12	-500.243E-3	-500.000E-3	-33.8253E-3	40.0056E-12	-1.77771E+0	27.4515E-3
