Experiment	bias spectroscopy	
Date	01.12.2015 12:32:47	
User		
X (m)	279.374E-9	
Y (m)	-138.16E-9	
Z (m)	-4.15189E-9	
Z offset (m)	0E+0	
Settling time (s)	30E-3	
Integration time (s)	200E-3	
Z-Ctrl hold	TRUE	
Final Z (m)	-4.15189E-9	
Filter type	None	
Order		
Cutoff frq		
Current (A)	69.1379E-12	
Z (m)	-4.15189E-9	
Phase (deg)	-174.835E-3	
Amplitude (m)	39.5459E-12	
Frequency Shift (Hz)	-1.1068E+0	
Excitation (V)	33.6603E-3	

[DATA]
Bias calc (V)	Current (A)	Applied Voltage measured (V)	Bias (V)	Phase (deg)	Amplitude (m)	Frequency Shift (Hz)	Excitation (V)
1.00000E+0	70.3107E-12	999.340E-3	1.00000E+0	-64.0939E-3	40.0809E-12	-1.07182E+0	22.3901E-3
988.189E-3	70.0382E-12	987.538E-3	988.189E-3	130.138E-3	40.0612E-12	-1.03387E+0	21.5596E-3
976.378E-3	69.2477E-12	975.772E-3	976.378E-3	39.7836E-3	39.9049E-12	-1.04269E+0	27.4329E-3
964.567E-3	68.2725E-12	963.911E-3	964.567E-3	-112.375E-3	40.1144E-12	-1.08804E+0	21.6783E-3
952.756E-3	67.8735E-12	952.154E-3	952.756E-3	195.353E-3	39.8331E-12	-1.00216E+0	28.4821E-3
940.945E-3	67.4461E-12	940.320E-3	940.945E-3	2.56515E-3	40.0464E-12	-999.915E-3	26.3230E-3
929.134E-3	66.4575E-12	928.492E-3	929.134E-3	-89.8052E-3	39.8890E-12	-1.04488E+0	25.3283E-3
917.323E-3	65.8551E-12	916.750E-3	917.323E-3	133.494E-3	39.9887E-12	-960.595E-3	22.8510E-3
905.512E-3	65.7159E-12	904.890E-3	905.512E-3	-125.597E-3	40.0886E-12	-1.03758E+0	22.4512E-3
893.701E-3	64.3942E-12	893.141E-3	893.701E-3	-27.0728E-3	40.0049E-12	-1.01797E+0	23.1959E-3
881.890E-3	63.5918E-12	881.291E-3	881.890E-3	85.3621E-3	40.0292E-12	-988.284E-3	23.6043E-3
870.079E-3	62.6243E-12	869.488E-3	870.079E-3	49.9503E-3	39.9304E-12	-985.509E-3	24.7220E-3
858.268E-3	62.7719E-12	857.661E-3	858.268E-3	19.1684E-3	40.0527E-12	-1.00005E+0	21.0920E-3
846.457E-3	61.6939E-12	845.823E-3	846.457E-3	-98.1311E-3	39.9767E-12	-1.03378E+0	24.0578E-3
834.646E-3	61.0096E-12	834.051E-3	834.646E-3	35.0934E-3	39.9814E-12	-977.134E-3	23.9043E-3
822.835E-3	60.6808E-12	822.243E-3	822.835E-3	124.026E-3	40.0884E-12	-939.430E-3	23.8309E-3
811.024E-3	60.2101E-12	810.413E-3	811.024E-3	-995.057E-6	39.9717E-12	-937.822E-3	26.7104E-3
799.213E-3	59.1241E-12	798.649E-3	799.213E-3	48.1407E-3	39.9965E-12	-935.115E-3	23.8070E-3
787.402E-3	58.5375E-12	786.812E-3	787.402E-3	-3.44210E-3	40.0233E-12	-940.381E-3	25.1852E-3
775.591E-3	57.6124E-12	775.028E-3	775.591E-3	-30.9876E-3	40.0182E-12	-970.587E-3	22.5285E-3
763.780E-3	57.0040E-12	763.204E-3	763.780E-3	107.627E-3	39.8790E-12	-940.943E-3	24.5360E-3
751.969E-3	56.5667E-12	751.428E-3	751.969E-3	-115.915E-3	40.0520E-12	-990.780E-3	22.6608E-3
740.157E-3	55.7599E-12	739.622E-3	740.157E-3	75.0324E-3	40.0170E-12	-949.795E-3	24.8733E-3
728.346E-3	55.0033E-12	727.787E-3	728.346E-3	115.007E-3	40.0182E-12	-939.421E-3	25.0343E-3
716.535E-3	54.2381E-12	716.004E-3	716.535E-3	-3.65150E-3	40.0012E-12	-946.539E-3	26.7899E-3
704.724E-3	53.4585E-12	704.308E-3	704.724E-3	63.7175E-3	39.9393E-12	-924.849E-3	27.4105E-3
692.913E-3	52.9768E-12	692.511E-3	692.913E-3	-25.3000E-3	40.1055E-12	-941.794E-3	25.1121E-3
681.102E-3	51.8908E-12	680.736E-3	681.102E-3	-125.716E-3	39.9930E-12	-1.00344E+0	24.7991E-3
669.291E-3	51.0681E-12	668.925E-3	669.291E-3	-2.00701E-3	40.0622E-12	-951.319E-3	23.1580E-3
657.480E-3	50.1806E-12	657.078E-3	657.480E-3	-63.3832E-3	39.9281E-12	-965.337E-3	25.1113E-3
645.669E-3	49.8144E-12	645.276E-3	645.669E-3	238.985E-3	39.9747E-12	-876.213E-3	26.6825E-3
633.858E-3	48.7351E-12	633.468E-3	633.858E-3	184.029E-3	39.9753E-12	-855.943E-3	26.1775E-3
622.047E-3	48.3009E-12	621.659E-3	622.047E-3	-296.372E-3	40.0018E-12	-1.02776E+0	25.5971E-3
610.236E-3	47.6140E-12	609.894E-3	610.236E-3	194.509E-3	40.0598E-12	-891.327E-3	23.8971E-3
598.425E-3	46.3881E-12	598.087E-3	598.425E-3	87.5719E-3	39.9885E-12	-921.353E-3	23.1996E-3
586.614E-3	46.3284E-12	586.277E-3	586.614E-3	-162.067E-3	39.9541E-12	-985.144E-3	25.8611E-3
574.803E-3	44.9237E-12	574.460E-3	574.803E-3	-12.0580E-3	40.0281E-12	-974.299E-3	22.7479E-3
562.992E-3	44.2850E-12	562.688E-3	562.992E-3	123.190E-3	39.9989E-12	-923.317E-3	27.3554E-3
551.181E-3	43.4838E-12	550.870E-3	551.181E-3	-31.1776E-3	40.0529E-12	-949.053E-3	22.8838E-3
539.370E-3	42.5372E-12	539.008E-3	539.370E-3	22.5712E-3	40.0292E-12	-946.550E-3	23.2237E-3
527.559E-3	41.5182E-12	527.221E-3	527.559E-3	59.7793E-3	39.9993E-12	-944.243E-3	23.9406E-3
515.748E-3	40.7727E-12	515.382E-3	515.748E-3	54.2859E-3	39.9042E-12	-940.620E-3	28.2643E-3
503.937E-3	39.6804E-12	503.592E-3	503.937E-3	120.433E-3	39.9711E-12	-904.482E-3	25.3256E-3
492.126E-3	38.9697E-12	491.765E-3	492.126E-3	-56.8710E-3	40.0061E-12	-945.470E-3	24.0817E-3
480.315E-3	37.9141E-12	479.962E-3	480.315E-3	-151.192E-3	39.9453E-12	-975.380E-3	26.1512E-3
468.504E-3	37.2491E-12	468.166E-3	468.504E-3	21.1744E-3	40.0033E-12	-927.414E-3	25.6485E-3
456.693E-3	36.3633E-12	456.360E-3	456.693E-3	-70.0901E-3	40.0257E-12	-977.451E-3	24.5417E-3
444.882E-3	35.0280E-12	444.583E-3	444.882E-3	-101.563E-3	39.9806E-12	-998.947E-3	25.9844E-3
433.071E-3	34.3331E-12	432.755E-3	433.071E-3	48.6418E-3	40.0163E-12	-934.213E-3	22.7713E-3
421.260E-3	33.3977E-12	420.947E-3	421.260E-3	78.3255E-3	39.9823E-12	-923.381E-3	25.6167E-3
409.449E-3	32.6218E-12	409.168E-3	409.449E-3	-32.9471E-3	40.0441E-12	-944.889E-3	25.0383E-3
397.638E-3	31.6437E-12	397.320E-3	397.638E-3	-17.9517E-3	40.0078E-12	-956.041E-3	25.4416E-3
385.827E-3	30.6402E-12	385.569E-3	385.827E-3	-20.3830E-3	40.0651E-12	-961.889E-3	22.7656E-3
374.016E-3	29.6490E-12	373.722E-3	374.016E-3	-90.8834E-3	39.9858E-12	-974.407E-3	23.6499E-3
362.205E-3	28.8048E-12	361.924E-3	362.205E-3	-28.7743E-3	39.9619E-12	-963.258E-3	28.9602E-3
350.394E-3	27.5200E-12	350.180E-3	350.394E-3	116.682E-3	39.9643E-12	-936.468E-3	25.4624E-3
338.583E-3	27.0269E-12	338.311E-3	338.583E-3	2.56861E-3	40.0135E-12	-952.412E-3	27.5120E-3
326.772E-3	25.7912E-12	326.525E-3	326.772E-3	48.6622E-3	39.9642E-12	-945.547E-3	26.4016E-3
314.961E-3	24.7521E-12	314.690E-3	314.961E-3	-16.7103E-3	40.0240E-12	-956.725E-3	25.6842E-3
303.150E-3	23.8748E-12	302.862E-3	303.150E-3	7.64602E-3	39.8983E-12	-958.901E-3	28.6938E-3
291.339E-3	22.8929E-12	291.118E-3	291.339E-3	-100.246E-3	40.1277E-12	-1.00136E+0	25.1647E-3
279.528E-3	21.7096E-12	279.286E-3	279.528E-3	-37.6317E-3	39.9421E-12	-1.00841E+0	26.7948E-3
267.717E-3	21.0231E-12	267.476E-3	267.717E-3	121.833E-3	40.0063E-12	-956.840E-3	25.9134E-3
255.906E-3	20.0690E-12	255.651E-3	255.906E-3	40.0353E-3	39.9910E-12	-992.853E-3	26.5101E-3
244.094E-3	19.0439E-12	243.876E-3	244.094E-3	31.9854E-3	39.9635E-12	-990.109E-3	26.5455E-3
232.283E-3	18.2974E-12	232.021E-3	232.283E-3	20.5987E-3	39.9980E-12	-974.043E-3	25.3689E-3
220.472E-3	17.3089E-12	220.195E-3	220.472E-3	-59.5392E-3	40.0281E-12	-1.01005E+0	23.7610E-3
208.661E-3	16.2981E-12	208.416E-3	208.661E-3	-1.92684E-3	39.9765E-12	-1.00658E+0	26.8382E-3
196.850E-3	15.4028E-12	196.577E-3	196.850E-3	13.5416E-3	40.0098E-12	-1.01808E+0	24.9668E-3
185.039E-3	14.3162E-12	184.812E-3	185.039E-3	-61.8604E-3	39.9607E-12	-1.05815E+0	27.9662E-3
173.228E-3	13.4797E-12	173.006E-3	173.228E-3	-88.3559E-3	40.0108E-12	-1.06907E+0	25.6551E-3
161.417E-3	12.6750E-12	161.173E-3	161.417E-3	-9.18935E-3	40.1086E-12	-1.06626E+0	26.2942E-3
149.606E-3	11.5479E-12	149.352E-3	149.606E-3	48.6554E-3	39.8933E-12	-1.04786E+0	27.9488E-3
137.795E-3	10.8653E-12	137.558E-3	137.795E-3	15.1656E-3	39.9986E-12	-1.02982E+0	27.2762E-3
125.984E-3	9.83679E-12	125.798E-3	125.984E-3	-294.327E-3	40.0044E-12	-1.14774E+0	27.9839E-3
114.173E-3	9.02916E-12	113.960E-3	114.173E-3	-64.2328E-3	39.9758E-12	-1.10037E+0	26.3345E-3
102.362E-3	8.04499E-12	102.144E-3	102.362E-3	5.47739E-3	39.9996E-12	-1.06405E+0	26.4243E-3
90.5512E-3	7.04976E-12	90.3359E-3	90.5512E-3	-79.5783E-3	40.0632E-12	-1.07976E+0	22.8361E-3
78.7402E-3	6.13318E-12	78.5074E-3	78.7402E-3	-120.087E-3	39.9885E-12	-1.12232E+0	26.2877E-3
66.9291E-3	5.17945E-12	66.6398E-3	66.9291E-3	56.7675E-3	40.0848E-12	-1.08270E+0	22.0225E-3
55.1181E-3	4.24780E-12	54.8598E-3	55.1181E-3	87.3153E-3	39.9911E-12	-1.05928E+0	26.4631E-3
43.3071E-3	3.35209E-12	43.0321E-3	43.3071E-3	-148.852E-3	40.0000E-12	-1.14874E+0	25.4490E-3
31.4961E-3	2.45352E-12	31.2055E-3	31.4961E-3	-3.87186E-3	39.9795E-12	-1.12397E+0	27.5041E-3
19.6850E-3	1.48951E-12	19.4117E-3	19.6850E-3	55.5883E-3	40.0545E-12	-1.11661E+0	25.3359E-3
7.87402E-3	557.267E-15	7.55376E-3	7.87402E-3	-98.4374E-3	39.9006E-12	-1.19013E+0	26.3566E-3
-3.93701E-3	-391.461E-15	-4.33684E-3	-3.93701E-3	149.282E-3	40.0006E-12	-1.11165E+0	26.1683E-3
-15.7480E-3	-1.26704E-12	-16.1175E-3	-15.7480E-3	8.01826E-3	40.0653E-12	-1.13899E+0	24.7435E-3
-27.5591E-3	-2.17616E-12	-27.9247E-3	-27.5591E-3	41.0276E-3	39.9687E-12	-1.11138E+0	27.0136E-3
-39.3701E-3	-3.03660E-12	-39.6939E-3	-39.3701E-3	-68.0594E-3	40.0353E-12	-1.18216E+0	24.6208E-3
-51.1811E-3	-3.83951E-12	-51.5466E-3	-51.1811E-3	-138.940E-3	39.9262E-12	-1.23353E+0	29.6094E-3
-62.9921E-3	-4.73404E-12	-63.3159E-3	-62.9921E-3	67.5748E-3	40.0002E-12	-1.18459E+0	27.3389E-3
-74.8032E-3	-5.35617E-12	-75.1500E-3	-74.8032E-3	52.6705E-3	40.0401E-12	-1.20273E+0	27.3093E-3
-86.6142E-3	-5.72148E-12	-87.0143E-3	-86.6142E-3	69.5278E-3	40.0066E-12	-1.19653E+0	24.2383E-3
-98.4252E-3	-6.04388E-12	-98.7852E-3	-98.4252E-3	2.06613E-3	39.9717E-12	-1.19566E+0	27.0206E-3
-110.236E-3	-6.29674E-12	-110.643E-3	-110.236E-3	-110.735E-3	40.0584E-12	-1.26177E+0	24.7530E-3
-122.047E-3	-6.73278E-12	-122.385E-3	-122.047E-3	73.2589E-3	39.9385E-12	-1.19881E+0	26.6762E-3
-133.858E-3	-7.10241E-12	-134.234E-3	-133.858E-3	32.2493E-3	40.0164E-12	-1.19700E+0	26.7704E-3
-145.669E-3	-7.48081E-12	-146.029E-3	-145.669E-3	10.0004E-3	40.0524E-12	-1.22747E+0	27.0617E-3
-157.480E-3	-7.96603E-12	-157.814E-3	-157.480E-3	36.5243E-3	39.9360E-12	-1.22342E+0	26.9928E-3
-169.291E-3	-8.36466E-12	-169.687E-3	-169.291E-3	61.0266E-3	39.9497E-12	-1.25031E+0	29.8332E-3
-181.102E-3	-8.98430E-12	-181.427E-3	-181.102E-3	-70.8926E-3	40.0872E-12	-1.26686E+0	24.7408E-3
-192.913E-3	-9.39250E-12	-193.231E-3	-192.913E-3	-179.910E-3	40.0402E-12	-1.33497E+0	26.4533E-3
-204.724E-3	-9.79533E-12	-205.058E-3	-204.724E-3	-84.0003E-3	39.9813E-12	-1.33360E+0	27.2269E-3
-216.535E-3	-10.3073E-12	-216.861E-3	-216.535E-3	-85.3901E-3	39.9789E-12	-1.32722E+0	25.4728E-3
-228.346E-3	-10.7083E-12	-228.681E-3	-228.346E-3	-66.2998E-3	39.9411E-12	-1.34161E+0	28.7846E-3
-240.157E-3	-11.4798E-12	-240.480E-3	-240.157E-3	76.4273E-3	40.0739E-12	-1.29955E+0	24.3650E-3
-251.969E-3	-11.7877E-12	-252.291E-3	-251.969E-3	63.5661E-3	40.0086E-12	-1.30057E+0	27.3341E-3
-263.780E-3	-12.4292E-12	-264.070E-3	-263.780E-3	-33.3688E-3	39.9711E-12	-1.33253E+0	27.6604E-3
-275.591E-3	-12.8713E-12	-275.874E-3	-275.591E-3	22.1254E-3	39.9774E-12	-1.33368E+0	27.9927E-3
-287.402E-3	-13.7240E-12	-287.712E-3	-287.402E-3	-121.117E-3	40.0320E-12	-1.38809E+0	24.6168E-3
-299.213E-3	-14.1366E-12	-299.497E-3	-299.213E-3	94.6507E-3	39.9832E-12	-1.33812E+0	28.6790E-3
-311.024E-3	-14.6181E-12	-311.330E-3	-311.024E-3	-17.5170E-3	39.9898E-12	-1.38320E+0	28.5794E-3
-322.835E-3	-15.2843E-12	-323.129E-3	-322.835E-3	-60.4783E-3	39.9768E-12	-1.39686E+0	29.9918E-3
-334.646E-3	-15.6775E-12	-334.904E-3	-334.646E-3	-203.131E-3	39.9162E-12	-1.46424E+0	30.7943E-3
-346.457E-3	-16.2325E-12	-346.719E-3	-346.457E-3	-97.8813E-3	40.0797E-12	-1.44144E+0	26.4618E-3
-358.268E-3	-16.6686E-12	-358.563E-3	-358.268E-3	-23.5084E-3	40.0111E-12	-1.42627E+0	28.3436E-3
-370.079E-3	-17.2078E-12	-370.362E-3	-370.079E-3	-43.5245E-3	39.9538E-12	-1.46291E+0	27.6570E-3
-381.890E-3	-17.6860E-12	-382.127E-3	-381.890E-3	16.1423E-3	39.9959E-12	-1.46044E+0	26.4364E-3
-393.701E-3	-18.4844E-12	-394.005E-3	-393.701E-3	-31.3253E-3	40.0219E-12	-1.45890E+0	24.2440E-3
-405.512E-3	-18.8327E-12	-405.809E-3	-405.512E-3	15.5116E-3	39.9779E-12	-1.44434E+0	26.2119E-3
-417.323E-3	-19.5371E-12	-417.608E-3	-417.323E-3	-143.116E-3	40.0581E-12	-1.50427E+0	25.3177E-3
-429.134E-3	-20.3268E-12	-429.415E-3	-429.134E-3	89.5451E-3	39.9634E-12	-1.45366E+0	25.9830E-3
-440.945E-3	-20.7408E-12	-441.223E-3	-440.945E-3	-75.4055E-3	39.9880E-12	-1.53091E+0	27.1141E-3
-452.756E-3	-21.5967E-12	-453.027E-3	-452.756E-3	14.4031E-3	40.0446E-12	-1.50962E+0	25.3194E-3
-464.567E-3	-22.4739E-12	-464.848E-3	-464.567E-3	-38.7683E-3	40.0509E-12	-1.55590E+0	25.1412E-3
-476.378E-3	-22.6572E-12	-476.677E-3	-476.378E-3	-61.3348E-3	39.9481E-12	-1.57458E+0	28.0030E-3
-488.189E-3	-23.1388E-12	-488.396E-3	-488.189E-3	-46.9546E-3	40.0263E-12	-1.58824E+0	26.0611E-3
-500.000E-3	-23.9847E-12	-500.239E-3	-500.000E-3	-139.155E-3	40.0459E-12	-1.62165E+0	26.1078E-3
