Experiment	bias spectroscopy	
Date	01.12.2015 03:37:34	
User		
X (m)	281.682E-9	
Y (m)	-139.637E-9	
Z (m)	-4.07703E-9	
Z offset (m)	0E+0	
Settling time (s)	30E-3	
Integration time (s)	200E-3	
Z-Ctrl hold	TRUE	
Final Z (m)	-4.07703E-9	
Filter type	None	
Order		
Cutoff frq		
Current (A)	11.3697E-12	
Z (m)	-4.07703E-9	
Phase (deg)	597.607E-3	
Amplitude (m)	40.1511E-12	
Frequency Shift (Hz)	-930.149E-3	
Excitation (V)	25.4775E-3	

[DATA]
Bias calc (V)	Current (A)	Applied Voltage measured (V)	Bias (V)	Phase (deg)	Amplitude (m)	Frequency Shift (Hz)	Excitation (V)
1.00000E+0	11.0311E-12	999.339E-3	1.00000E+0	-89.9022E-3	40.0040E-12	-1.13129E+0	27.8957E-3
988.189E-3	10.7753E-12	987.545E-3	988.189E-3	-57.8002E-3	39.9279E-12	-1.11975E+0	28.2464E-3
976.378E-3	10.7600E-12	975.779E-3	976.378E-3	122.691E-3	39.9090E-12	-1.04428E+0	28.9608E-3
964.567E-3	10.6780E-12	963.906E-3	964.567E-3	49.3932E-3	40.0784E-12	-1.05631E+0	25.6917E-3
952.756E-3	10.6141E-12	952.158E-3	952.756E-3	384.618E-6	40.0016E-12	-1.08881E+0	26.7541E-3
940.945E-3	10.4289E-12	940.317E-3	940.945E-3	212.764E-3	40.0064E-12	-1.00569E+0	28.3137E-3
929.134E-3	10.4083E-12	928.492E-3	929.134E-3	82.0418E-3	40.0445E-12	-1.02290E+0	24.7651E-3
917.323E-3	10.1931E-12	916.745E-3	917.323E-3	-56.6990E-3	39.9595E-12	-1.05571E+0	25.5147E-3
905.512E-3	10.1105E-12	904.892E-3	905.512E-3	20.6147E-3	40.0357E-12	-1.04432E+0	22.9940E-3
893.701E-3	10.1690E-12	893.125E-3	893.701E-3	54.3457E-3	39.9427E-12	-1.01542E+0	29.1054E-3
881.890E-3	9.93717E-12	881.295E-3	881.890E-3	-57.1989E-3	39.9722E-12	-1.04341E+0	26.0730E-3
870.079E-3	9.86481E-12	869.491E-3	870.079E-3	-24.0027E-3	40.0665E-12	-1.04032E+0	23.1717E-3
858.268E-3	9.73305E-12	857.667E-3	858.268E-3	18.6143E-3	39.9884E-12	-1.04013E+0	24.4605E-3
846.457E-3	9.60481E-12	845.828E-3	846.457E-3	92.1416E-3	39.9928E-12	-1.00571E+0	25.8322E-3
834.646E-3	9.51399E-12	834.048E-3	834.646E-3	-8.61976E-3	40.0096E-12	-1.03649E+0	25.7429E-3
822.835E-3	9.34293E-12	822.233E-3	822.835E-3	104.440E-3	39.9945E-12	-985.679E-3	25.3103E-3
811.024E-3	9.30017E-12	810.408E-3	811.024E-3	43.6884E-3	39.9814E-12	-982.296E-3	24.2032E-3
799.213E-3	9.23878E-12	798.647E-3	799.213E-3	-19.7151E-3	40.0278E-12	-1.01184E+0	23.9017E-3
787.402E-3	8.99308E-12	786.816E-3	787.402E-3	133.651E-3	39.9157E-12	-971.462E-3	29.2642E-3
775.591E-3	8.92961E-12	775.032E-3	775.591E-3	28.7875E-3	40.0115E-12	-982.563E-3	27.1860E-3
763.780E-3	8.96041E-12	763.204E-3	763.780E-3	67.2131E-3	40.0761E-12	-969.328E-3	26.4900E-3
751.969E-3	8.83142E-12	751.429E-3	751.969E-3	-82.1144E-3	39.9516E-12	-1.00359E+0	25.8528E-3
740.157E-3	8.68550E-12	739.625E-3	740.157E-3	-61.9539E-3	40.0377E-12	-988.358E-3	23.5288E-3
728.346E-3	8.61434E-12	727.782E-3	728.346E-3	-67.8814E-3	39.9960E-12	-1.01553E+0	25.5975E-3
716.535E-3	8.39919E-12	716.002E-3	716.535E-3	96.6910E-3	40.0376E-12	-950.363E-3	23.9761E-3
704.724E-3	8.41285E-12	704.309E-3	704.724E-3	-6.71421E-3	40.0273E-12	-958.767E-3	22.9097E-3
692.913E-3	8.16759E-12	692.501E-3	692.913E-3	21.7846E-3	39.9675E-12	-976.153E-3	26.5514E-3
681.102E-3	8.16364E-12	680.722E-3	681.102E-3	122.516E-3	39.9657E-12	-953.763E-3	28.9839E-3
669.291E-3	8.11837E-12	668.913E-3	669.291E-3	-87.5759E-3	40.0857E-12	-1.01560E+0	24.1611E-3
657.480E-3	8.04327E-12	657.074E-3	657.480E-3	18.9452E-3	40.0041E-12	-1.00471E+0	25.4426E-3
645.669E-3	7.76411E-12	645.283E-3	645.669E-3	17.6210E-3	39.9473E-12	-1.00151E+0	26.3712E-3
633.858E-3	7.80890E-12	633.474E-3	633.858E-3	10.8839E-3	40.0311E-12	-977.144E-3	24.6454E-3
622.047E-3	7.65485E-12	621.669E-3	622.047E-3	-21.3278E-3	39.9758E-12	-999.925E-3	25.7996E-3
610.236E-3	7.52570E-12	609.903E-3	610.236E-3	16.0445E-3	40.0178E-12	-982.677E-3	27.5083E-3
598.425E-3	7.35463E-12	598.097E-3	598.425E-3	12.5535E-3	40.0158E-12	-970.467E-3	24.4071E-3
586.614E-3	7.35180E-12	586.286E-3	586.614E-3	75.5609E-3	40.0499E-12	-942.126E-3	23.2025E-3
574.803E-3	7.15640E-12	574.467E-3	574.803E-3	-4.62501E-3	40.0106E-12	-967.770E-3	26.1202E-3
562.992E-3	7.04721E-12	562.698E-3	562.992E-3	-10.0438E-3	39.9441E-12	-981.205E-3	24.2014E-3
551.181E-3	6.97972E-12	550.880E-3	551.181E-3	-93.3168E-3	40.0076E-12	-1.01324E+0	26.4469E-3
539.370E-3	6.98143E-12	539.017E-3	539.370E-3	93.1514E-3	40.0850E-12	-976.373E-3	23.1891E-3
527.559E-3	6.73572E-12	527.222E-3	527.559E-3	-17.3884E-3	39.9659E-12	-979.388E-3	26.3526E-3
515.748E-3	6.62482E-12	515.386E-3	515.748E-3	-58.0189E-3	40.0002E-12	-1.02050E+0	26.4060E-3
503.937E-3	6.55315E-12	503.604E-3	503.937E-3	113.142E-3	40.0596E-12	-938.372E-3	21.8012E-3
492.126E-3	6.42780E-12	491.773E-3	492.126E-3	25.3983E-3	39.9959E-12	-959.506E-3	23.1486E-3
480.315E-3	6.22646E-12	479.967E-3	480.315E-3	-116.156E-3	39.9965E-12	-1.01111E+0	24.7058E-3
468.504E-3	6.12708E-12	468.170E-3	468.504E-3	106.836E-3	39.9508E-12	-958.755E-3	26.0538E-3
456.693E-3	6.01953E-12	456.359E-3	456.693E-3	45.8026E-3	39.9927E-12	-961.131E-3	26.8296E-3
444.882E-3	5.93511E-12	444.590E-3	444.882E-3	-120.507E-3	40.0207E-12	-1.00055E+0	24.5841E-3
433.071E-3	5.80052E-12	432.749E-3	433.071E-3	-102.142E-3	40.0232E-12	-1.02908E+0	27.6455E-3
421.260E-3	5.65128E-12	420.941E-3	421.260E-3	137.616E-3	40.0412E-12	-963.462E-3	25.2754E-3
409.449E-3	5.51187E-12	409.167E-3	409.449E-3	-75.7937E-3	40.0072E-12	-1.00632E+0	24.7637E-3
397.638E-3	5.35238E-12	397.319E-3	397.638E-3	113.903E-3	39.9451E-12	-944.244E-3	28.5983E-3
385.827E-3	5.32192E-12	385.562E-3	385.827E-3	10.9362E-3	39.9831E-12	-958.631E-3	26.6021E-3
374.016E-3	5.24962E-12	373.720E-3	374.016E-3	-93.2343E-3	40.0675E-12	-1.01081E+0	23.7032E-3
362.205E-3	4.96844E-12	361.924E-3	362.205E-3	-30.6331E-3	39.9345E-12	-1.01234E+0	31.9850E-3
350.394E-3	4.86280E-12	350.172E-3	350.394E-3	34.2718E-3	39.9337E-12	-993.049E-3	28.5172E-3
338.583E-3	4.82228E-12	338.306E-3	338.583E-3	-2.56226E-3	40.0971E-12	-993.320E-3	26.3229E-3
326.772E-3	4.66140E-12	326.512E-3	326.772E-3	89.9541E-3	39.9288E-12	-954.511E-3	25.8207E-3
314.961E-3	4.49632E-12	314.678E-3	314.961E-3	-116.889E-3	40.0293E-12	-1.02437E+0	24.8108E-3
303.150E-3	4.37382E-12	302.866E-3	303.150E-3	15.8806E-3	40.0319E-12	-983.598E-3	26.4180E-3
291.339E-3	4.25566E-12	291.111E-3	291.339E-3	15.2175E-3	39.9808E-12	-973.082E-3	28.0207E-3
279.528E-3	4.04702E-12	279.284E-3	279.528E-3	-54.7675E-3	39.9929E-12	-1.01587E+0	27.9789E-3
267.717E-3	3.88227E-12	267.471E-3	267.717E-3	-150.486E-3	40.0065E-12	-1.05421E+0	26.0295E-3
255.906E-3	3.72283E-12	255.660E-3	255.906E-3	-79.4321E-3	39.9637E-12	-1.03679E+0	29.6310E-3
244.094E-3	3.60993E-12	243.882E-3	244.094E-3	167.456E-3	39.9920E-12	-953.554E-3	25.4844E-3
232.283E-3	3.44774E-12	232.028E-3	232.283E-3	58.2869E-3	39.9508E-12	-985.891E-3	28.2753E-3
220.472E-3	3.25687E-12	220.205E-3	220.472E-3	-62.4139E-3	39.9040E-12	-1.02345E+0	27.9445E-3
208.661E-3	3.21548E-12	208.414E-3	208.661E-3	-5.15991E-3	40.0829E-12	-997.655E-3	23.9427E-3
196.850E-3	2.98985E-12	196.583E-3	196.850E-3	-97.7279E-3	39.9921E-12	-1.04436E+0	23.4167E-3
185.039E-3	2.81320E-12	184.809E-3	185.039E-3	-52.6350E-3	39.9530E-12	-1.06617E+0	28.8455E-3
173.228E-3	2.64353E-12	172.993E-3	173.228E-3	-3.86087E-3	40.0010E-12	-1.05900E+0	26.7922E-3
161.417E-3	2.49104E-12	161.167E-3	161.417E-3	53.7963E-3	39.9960E-12	-1.03436E+0	24.8121E-3
149.606E-3	2.32727E-12	149.346E-3	149.606E-3	-39.6960E-3	40.0230E-12	-1.07480E+0	25.0272E-3
137.795E-3	2.15116E-12	137.556E-3	137.795E-3	25.5030E-3	40.0865E-12	-1.04901E+0	26.4722E-3
125.984E-3	1.99071E-12	125.794E-3	125.984E-3	-148.043E-3	40.0038E-12	-1.10296E+0	25.3739E-3
114.173E-3	1.79784E-12	113.959E-3	114.173E-3	33.0630E-3	40.0227E-12	-1.06173E+0	24.4119E-3
102.362E-3	1.60213E-12	102.154E-3	102.362E-3	-25.2993E-3	39.9356E-12	-1.07731E+0	24.8787E-3
90.5512E-3	1.41279E-12	90.3444E-3	90.5512E-3	-4.29159E-3	40.0396E-12	-1.09483E+0	24.7292E-3
78.7402E-3	1.21595E-12	78.5156E-3	78.7402E-3	9.75598E-3	39.9852E-12	-1.07115E+0	26.4025E-3
66.9291E-3	1.02370E-12	66.6429E-3	66.9291E-3	14.7597E-3	39.9591E-12	-1.06249E+0	27.6808E-3
55.1181E-3	830.090E-15	54.8727E-3	55.1181E-3	-93.0988E-3	40.0532E-12	-1.12912E+0	25.7861E-3
43.3071E-3	643.512E-15	43.0415E-3	43.3071E-3	94.8401E-3	40.0262E-12	-1.07558E+0	25.7958E-3
31.4961E-3	430.362E-15	31.2106E-3	31.4961E-3	-70.9784E-3	39.9814E-12	-1.11652E+0	28.6809E-3
19.6850E-3	233.735E-15	19.4114E-3	19.6850E-3	-61.0185E-3	40.0306E-12	-1.11905E+0	29.5185E-3
7.87402E-3	27.4527E-15	7.56312E-3	7.87402E-3	5.27836E-3	40.0611E-12	-1.13220E+0	25.7291E-3
-3.93701E-3	-203.912E-15	-4.31892E-3	-3.93701E-3	-6.13611E-3	39.9584E-12	-1.12267E+0	27.7582E-3
-15.7480E-3	-439.419E-15	-16.1066E-3	-15.7480E-3	-39.0252E-3	40.0043E-12	-1.13804E+0	27.6433E-3
-27.5591E-3	-667.372E-15	-27.9242E-3	-27.5591E-3	6.62217E-3	40.0278E-12	-1.14370E+0	28.2912E-3
-39.3701E-3	-897.600E-15	-39.6919E-3	-39.3701E-3	39.6811E-3	39.9827E-12	-1.12621E+0	27.7477E-3
-51.1811E-3	-1.15029E-12	-51.5477E-3	-51.1811E-3	-113.268E-3	40.0124E-12	-1.17202E+0	25.7953E-3
-62.9921E-3	-1.37597E-12	-63.3218E-3	-62.9921E-3	-134.385E-3	40.0443E-12	-1.21487E+0	26.9568E-3
-74.8032E-3	-1.57220E-12	-75.1695E-3	-74.8032E-3	100.166E-3	40.0202E-12	-1.13732E+0	25.0746E-3
-86.6142E-3	-1.69378E-12	-87.0241E-3	-86.6142E-3	68.9412E-3	40.0034E-12	-1.13781E+0	25.9496E-3
-98.4252E-3	-1.79311E-12	-98.7963E-3	-98.4252E-3	-69.0580E-3	39.9676E-12	-1.20738E+0	26.7395E-3
-110.236E-3	-1.89108E-12	-110.651E-3	-110.236E-3	16.1603E-3	39.9481E-12	-1.17989E+0	25.9460E-3
-122.047E-3	-1.98560E-12	-122.396E-3	-122.047E-3	18.5976E-3	40.0555E-12	-1.17066E+0	28.1755E-3
-133.858E-3	-2.11122E-12	-134.246E-3	-133.858E-3	-29.6255E-3	39.9216E-12	-1.19704E+0	28.6439E-3
-145.669E-3	-2.22080E-12	-146.044E-3	-145.669E-3	-150.151E-3	40.0021E-12	-1.27933E+0	27.3544E-3
-157.480E-3	-2.38281E-12	-157.822E-3	-157.480E-3	30.1452E-3	39.9972E-12	-1.22339E+0	27.6050E-3
-169.291E-3	-2.48135E-12	-169.691E-3	-169.291E-3	-103.153E-3	39.9902E-12	-1.28614E+0	26.9899E-3
-181.102E-3	-2.59996E-12	-181.428E-3	-181.102E-3	127.859E-3	40.0430E-12	-1.20080E+0	24.6503E-3
-192.913E-3	-2.75964E-12	-193.233E-3	-192.913E-3	-233.948E-3	40.0426E-12	-1.32873E+0	25.6575E-3
-204.724E-3	-2.81710E-12	-205.057E-3	-204.724E-3	47.1028E-3	40.0409E-12	-1.26837E+0	22.7049E-3
-216.535E-3	-2.85446E-12	-216.867E-3	-216.535E-3	-78.7087E-3	39.8807E-12	-1.30666E+0	27.7872E-3
-228.346E-3	-3.03254E-12	-228.682E-3	-228.346E-3	-6.90911E-3	40.1058E-12	-1.28938E+0	25.2304E-3
-240.157E-3	-3.09822E-12	-240.485E-3	-240.157E-3	-160.148E-3	40.0780E-12	-1.34677E+0	24.6273E-3
-251.969E-3	-3.19209E-12	-252.308E-3	-251.969E-3	69.3630E-3	39.9390E-12	-1.26974E+0	26.9447E-3
-263.780E-3	-3.31290E-12	-264.073E-3	-263.780E-3	-224.806E-3	39.9885E-12	-1.36656E+0	28.3680E-3
-275.591E-3	-3.42656E-12	-275.890E-3	-275.591E-3	-90.3240E-3	39.9457E-12	-1.36808E+0	27.3606E-3
-287.402E-3	-3.58666E-12	-287.720E-3	-287.402E-3	-55.1883E-3	40.0254E-12	-1.36189E+0	27.9549E-3
-299.213E-3	-3.75734E-12	-299.505E-3	-299.213E-3	34.9596E-3	40.0862E-12	-1.33838E+0	24.0945E-3
-311.024E-3	-3.81234E-12	-311.332E-3	-311.024E-3	37.8571E-3	39.9305E-12	-1.34057E+0	27.0455E-3
-322.835E-3	-4.05168E-12	-323.125E-3	-322.835E-3	299.698E-3	40.0149E-12	-1.27867E+0	26.2791E-3
-334.646E-3	-4.12903E-12	-334.902E-3	-334.646E-3	-69.0563E-3	40.0456E-12	-1.36484E+0	23.5926E-3
-346.457E-3	-4.24418E-12	-346.718E-3	-346.457E-3	30.2950E-3	40.0486E-12	-1.35293E+0	26.0773E-3
-358.268E-3	-4.33478E-12	-358.561E-3	-358.268E-3	-62.7055E-3	40.0029E-12	-1.40824E+0	26.8182E-3
-370.079E-3	-4.41893E-12	-370.356E-3	-370.079E-3	-138.320E-3	39.9327E-12	-1.46645E+0	28.0203E-3
-381.890E-3	-4.52903E-12	-382.126E-3	-381.890E-3	4.24386E-3	39.9931E-12	-1.45499E+0	24.7349E-3
-393.701E-3	-4.72419E-12	-393.993E-3	-393.701E-3	-161.632E-3	40.0257E-12	-1.50732E+0	24.8221E-3
-405.512E-3	-4.81221E-12	-405.807E-3	-405.512E-3	25.6218E-3	39.9617E-12	-1.45517E+0	28.9867E-3
-417.323E-3	-4.94409E-12	-417.612E-3	-417.323E-3	46.8755E-3	39.9745E-12	-1.45957E+0	26.5068E-3
-429.134E-3	-5.12345E-12	-429.421E-3	-429.134E-3	-33.1062E-3	40.0395E-12	-1.49681E+0	26.1512E-3
-440.945E-3	-5.33338E-12	-441.224E-3	-440.945E-3	-56.0359E-3	39.9748E-12	-1.50830E+0	28.6268E-3
-452.756E-3	-5.56282E-12	-453.022E-3	-452.756E-3	-25.4728E-3	39.9964E-12	-1.50545E+0	25.5509E-3
-464.567E-3	-5.84690E-12	-464.848E-3	-464.567E-3	14.2512E-3	39.9596E-12	-1.48896E+0	26.1753E-3
-476.378E-3	-6.01343E-12	-476.668E-3	-476.378E-3	-137.971E-3	40.0026E-12	-1.56588E+0	28.1968E-3
-488.189E-3	-6.28318E-12	-488.395E-3	-488.189E-3	42.7567E-3	39.9928E-12	-1.54272E+0	28.2244E-3
-500.000E-3	-6.53112E-12	-500.240E-3	-500.000E-3	23.0382E-3	40.0022E-12	-1.55063E+0	26.1110E-3
