Experiment	bias spectroscopy	
Date	30.11.2015 19:05:02	
User		
X (m)	28.6711E-9	
Y (m)	-166.379E-9	
Z (m)	-3.75578E-9	
Z offset (m)	0E+0	
Settling time (s)	30E-3	
Integration time (s)	200E-3	
Z-Ctrl hold	TRUE	
Final Z (m)	-3.75578E-9	
Filter type	None	
Order		
Cutoff frq		
Current (A)	58.0634E-12	
Z (m)	-3.75578E-9	
Phase (deg)	975.769E-3	
Amplitude (m)	40.0813E-12	
Frequency Shift (Hz)	-419.707E-3	
Excitation (V)	22.39E-3	

[DATA]
Bias calc (V)	Current (A)	Applied Voltage measured (V)	Bias (V)	Phase (deg)	Amplitude (m)	Frequency Shift (Hz)	Excitation (V)
1.00000E+0	58.6773E-12	999.318E-3	1.00000E+0	-105.491E-3	40.0338E-12	-731.371E-3	20.9492E-3
988.189E-3	58.1446E-12	987.539E-3	988.189E-3	-152.066E-3	39.9609E-12	-778.011E-3	22.7848E-3
976.378E-3	57.0545E-12	975.769E-3	976.378E-3	163.632E-3	39.9856E-12	-691.734E-3	24.9018E-3
964.567E-3	56.4158E-12	963.898E-3	964.567E-3	-14.5395E-3	39.9765E-12	-735.235E-3	22.4686E-3
952.756E-3	56.0447E-12	952.142E-3	952.756E-3	99.5074E-3	40.0105E-12	-716.987E-3	24.3071E-3
940.945E-3	55.2876E-12	940.295E-3	940.945E-3	26.0116E-3	39.9551E-12	-723.269E-3	25.7481E-3
929.134E-3	54.7917E-12	928.483E-3	929.134E-3	94.3490E-3	39.9164E-12	-682.945E-3	25.4507E-3
917.323E-3	54.2471E-12	916.743E-3	917.323E-3	-90.4323E-3	39.9546E-12	-730.961E-3	24.5458E-3
905.512E-3	53.4820E-12	904.874E-3	905.512E-3	11.2303E-3	40.0250E-12	-711.941E-3	24.2677E-3
893.701E-3	52.9518E-12	893.117E-3	893.701E-3	63.1771E-3	40.0536E-12	-666.828E-3	25.2067E-3
881.890E-3	52.2590E-12	881.281E-3	881.890E-3	137.856E-3	40.0296E-12	-637.108E-3	24.9074E-3
870.079E-3	52.0864E-12	869.475E-3	870.079E-3	142.305E-3	40.0126E-12	-614.645E-3	25.6287E-3
858.268E-3	51.0085E-12	857.652E-3	858.268E-3	98.3819E-3	39.9455E-12	-613.768E-3	25.6093E-3
846.457E-3	50.7006E-12	845.818E-3	846.457E-3	-157.340E-3	40.0717E-12	-707.747E-3	23.3080E-3
834.646E-3	49.5206E-12	834.042E-3	834.646E-3	22.6634E-3	39.9564E-12	-670.934E-3	25.7052E-3
822.835E-3	49.4726E-12	822.233E-3	822.835E-3	-194.455E-3	40.0589E-12	-754.877E-3	23.6496E-3
811.024E-3	48.7327E-12	810.405E-3	811.024E-3	17.0320E-3	39.9906E-12	-686.076E-3	25.3396E-3
799.213E-3	47.9965E-12	798.638E-3	799.213E-3	174.121E-3	40.0089E-12	-615.502E-3	22.3894E-3
787.402E-3	47.5225E-12	786.796E-3	787.402E-3	95.3224E-3	39.9794E-12	-627.427E-3	23.4484E-3
775.591E-3	46.7668E-12	775.006E-3	775.591E-3	-25.2433E-3	39.9272E-12	-620.485E-3	26.6062E-3
763.780E-3	46.3898E-12	763.186E-3	763.780E-3	-139.350E-3	40.0504E-12	-668.984E-3	23.3826E-3
751.969E-3	45.1694E-12	751.420E-3	751.969E-3	29.6492E-3	39.8448E-12	-649.615E-3	30.8044E-3
740.157E-3	44.9229E-12	739.621E-3	740.157E-3	-79.9045E-3	40.0732E-12	-697.405E-3	24.4525E-3
728.346E-3	44.9300E-12	727.769E-3	728.346E-3	139.605E-3	39.9997E-12	-629.855E-3	26.0956E-3
716.535E-3	43.5488E-12	715.981E-3	716.535E-3	79.2610E-3	40.0331E-12	-619.889E-3	26.6296E-3
704.724E-3	43.4160E-12	704.297E-3	704.724E-3	62.5363E-3	39.9916E-12	-610.098E-3	26.0246E-3
692.913E-3	42.9799E-12	692.493E-3	692.913E-3	44.9500E-3	40.1448E-12	-602.317E-3	22.5424E-3
681.102E-3	41.4301E-12	680.718E-3	681.102E-3	-164.840E-3	39.9425E-12	-688.598E-3	22.3887E-3
669.291E-3	41.6321E-12	668.905E-3	669.291E-3	-30.9797E-3	40.0081E-12	-666.482E-3	22.7449E-3
657.480E-3	40.5051E-12	657.063E-3	657.480E-3	135.378E-3	39.9844E-12	-602.086E-3	26.8954E-3
645.669E-3	40.0796E-12	645.259E-3	645.669E-3	-150.018E-3	40.0510E-12	-666.160E-3	23.7854E-3
633.858E-3	39.3379E-12	633.454E-3	633.858E-3	66.5401E-3	40.0211E-12	-624.316E-3	26.9394E-3
622.047E-3	38.7413E-12	621.645E-3	622.047E-3	-103.868E-3	40.0159E-12	-667.687E-3	24.7012E-3
610.236E-3	37.7816E-12	609.884E-3	610.236E-3	97.9405E-3	39.9360E-12	-606.219E-3	26.5929E-3
598.425E-3	37.4519E-12	598.077E-3	598.425E-3	33.0834E-3	40.0431E-12	-617.234E-3	25.3587E-3
586.614E-3	36.6056E-12	586.265E-3	586.614E-3	-8.19741E-3	39.9416E-12	-636.597E-3	26.1460E-3
574.803E-3	35.9490E-12	574.447E-3	574.803E-3	-5.90022E-3	40.0551E-12	-622.993E-3	22.4168E-3
562.992E-3	36.1148E-12	562.666E-3	562.992E-3	55.1376E-3	40.0329E-12	-581.444E-3	25.4823E-3
551.181E-3	34.7636E-12	550.854E-3	551.181E-3	-57.3514E-3	39.9667E-12	-630.411E-3	28.8635E-3
539.370E-3	33.9445E-12	538.979E-3	539.370E-3	40.7741E-3	40.0310E-12	-609.850E-3	25.8409E-3
527.559E-3	33.4794E-12	527.199E-3	527.559E-3	99.1197E-3	40.0373E-12	-590.456E-3	24.4749E-3
515.748E-3	32.3094E-12	515.366E-3	515.748E-3	-195.888E-3	39.9751E-12	-696.731E-3	23.3208E-3
503.937E-3	32.0759E-12	503.573E-3	503.937E-3	81.2993E-3	40.0451E-12	-605.869E-3	24.0324E-3
492.126E-3	31.3284E-12	491.756E-3	492.126E-3	43.5414E-3	39.9526E-12	-625.509E-3	25.3403E-3
480.315E-3	30.9329E-12	479.943E-3	480.315E-3	12.2691E-3	40.0413E-12	-596.809E-3	25.3297E-3
468.504E-3	30.1136E-12	468.147E-3	468.504E-3	38.7173E-3	40.0515E-12	-625.348E-3	24.9720E-3
456.693E-3	29.2052E-12	456.337E-3	456.693E-3	-11.4344E-3	39.9821E-12	-616.283E-3	26.6302E-3
444.882E-3	28.5788E-12	444.575E-3	444.882E-3	-88.6547E-3	40.0394E-12	-635.028E-3	25.4330E-3
433.071E-3	27.9088E-12	432.748E-3	433.071E-3	-53.9950E-3	39.9218E-12	-647.641E-3	28.7102E-3
421.260E-3	27.1796E-12	420.932E-3	421.260E-3	-5.60649E-3	40.0303E-12	-657.223E-3	24.7708E-3
409.449E-3	26.2281E-12	409.149E-3	409.449E-3	146.795E-3	39.9682E-12	-603.357E-3	26.1283E-3
397.638E-3	25.5323E-12	397.301E-3	397.638E-3	-93.6445E-3	40.0081E-12	-672.012E-3	26.2900E-3
385.827E-3	24.7609E-12	385.546E-3	385.827E-3	-32.3866E-3	39.9742E-12	-661.517E-3	28.4875E-3
374.016E-3	24.1993E-12	373.706E-3	374.016E-3	62.2568E-3	39.9793E-12	-624.801E-3	26.9034E-3
362.205E-3	23.4108E-12	361.906E-3	362.205E-3	-460.962E-6	39.9968E-12	-635.325E-3	26.9910E-3
350.394E-3	22.5634E-12	350.159E-3	350.394E-3	-7.69595E-3	40.0453E-12	-634.792E-3	24.3289E-3
338.583E-3	21.7663E-12	338.303E-3	338.583E-3	-21.3179E-3	39.9457E-12	-642.452E-3	27.4510E-3
326.772E-3	21.1639E-12	326.515E-3	326.772E-3	89.6767E-3	40.0042E-12	-616.542E-3	27.4379E-3
314.961E-3	20.2794E-12	314.681E-3	314.961E-3	-41.1953E-3	39.9928E-12	-654.796E-3	23.6015E-3
303.150E-3	19.7499E-12	302.855E-3	303.150E-3	45.7234E-3	39.9907E-12	-635.746E-3	26.4282E-3
291.339E-3	18.9161E-12	291.111E-3	291.339E-3	-16.7876E-3	39.9854E-12	-659.315E-3	25.8195E-3
279.528E-3	18.0966E-12	279.266E-3	279.528E-3	-71.4629E-3	40.0219E-12	-686.886E-3	26.2384E-3
267.717E-3	17.4583E-12	267.450E-3	267.717E-3	66.8806E-3	40.0273E-12	-633.445E-3	24.1382E-3
255.906E-3	16.8218E-12	255.622E-3	255.906E-3	79.9648E-3	39.9901E-12	-617.775E-3	24.6313E-3
244.094E-3	15.7074E-12	243.842E-3	244.094E-3	-40.8533E-3	39.9942E-12	-666.086E-3	26.2924E-3
232.283E-3	14.9892E-12	231.995E-3	232.283E-3	28.8653E-3	40.0180E-12	-648.490E-3	24.3467E-3
220.472E-3	14.1123E-12	220.171E-3	220.472E-3	-96.7051E-3	39.9609E-12	-697.487E-3	24.8270E-3
208.661E-3	13.3470E-12	208.392E-3	208.661E-3	133.162E-3	40.0172E-12	-638.638E-3	24.2208E-3
196.850E-3	12.4381E-12	196.560E-3	196.850E-3	50.2592E-3	40.0027E-12	-661.230E-3	25.1208E-3
185.039E-3	11.4934E-12	184.794E-3	185.039E-3	-149.224E-3	40.0056E-12	-723.716E-3	26.3681E-3
173.228E-3	10.5611E-12	172.979E-3	173.228E-3	-57.3500E-3	39.9600E-12	-738.766E-3	26.2104E-3
161.417E-3	9.84174E-12	161.151E-3	161.417E-3	-90.8392E-3	40.0224E-12	-754.920E-3	27.4180E-3
149.606E-3	9.00415E-12	149.329E-3	149.606E-3	-26.3343E-3	39.9801E-12	-755.147E-3	26.8402E-3
137.795E-3	8.21089E-12	137.526E-3	137.795E-3	72.1294E-3	39.9966E-12	-735.279E-3	27.7104E-3
125.984E-3	7.39885E-12	125.767E-3	125.984E-3	-25.5819E-3	40.0820E-12	-756.135E-3	20.4041E-3
114.173E-3	6.45529E-12	113.940E-3	114.173E-3	-14.4427E-3	39.9522E-12	-766.306E-3	24.8378E-3
102.362E-3	5.75739E-12	102.135E-3	102.362E-3	31.6537E-3	39.9900E-12	-742.854E-3	28.0554E-3
90.5512E-3	5.03367E-12	90.3253E-3	90.5512E-3	-82.1718E-3	39.9819E-12	-805.200E-3	27.2804E-3
78.7402E-3	4.43476E-12	78.4928E-3	78.7402E-3	90.4507E-3	40.0395E-12	-741.702E-3	25.6911E-3
66.9291E-3	3.65030E-12	66.6296E-3	66.9291E-3	96.7218E-3	39.9823E-12	-713.548E-3	28.6366E-3
55.1181E-3	3.00489E-12	54.8610E-3	55.1181E-3	-29.3748E-3	39.9735E-12	-753.260E-3	29.0135E-3
43.3071E-3	2.36063E-12	43.0291E-3	43.3071E-3	-87.2688E-3	40.0610E-12	-783.393E-3	24.0930E-3
31.4961E-3	1.70297E-12	31.2101E-3	31.4961E-3	-44.8411E-3	40.0152E-12	-799.481E-3	22.8455E-3
19.6850E-3	1.01725E-12	19.4022E-3	19.6850E-3	141.713E-3	39.9931E-12	-744.159E-3	25.1498E-3
7.87402E-3	344.641E-15	7.54669E-3	7.87402E-3	-106.873E-3	39.9899E-12	-822.789E-3	24.9731E-3
-3.93701E-3	-312.968E-15	-4.33529E-3	-3.93701E-3	-30.9487E-3	40.0478E-12	-792.230E-3	27.4596E-3
-15.7480E-3	-976.622E-15	-16.1214E-3	-15.7480E-3	-11.4506E-3	40.0045E-12	-799.426E-3	26.4256E-3
-27.5591E-3	-1.64449E-12	-27.9395E-3	-27.5591E-3	93.2362E-3	40.0317E-12	-761.322E-3	25.3621E-3
-39.3701E-3	-2.29872E-12	-39.7158E-3	-39.3701E-3	77.4629E-3	40.0104E-12	-768.068E-3	26.5544E-3
-51.1811E-3	-2.89033E-12	-51.5809E-3	-51.1811E-3	-11.4036E-3	40.0045E-12	-809.568E-3	26.1079E-3
-62.9921E-3	-3.38481E-12	-63.3399E-3	-62.9921E-3	-121.940E-3	39.9722E-12	-857.993E-3	24.8622E-3
-74.8032E-3	-3.81354E-12	-75.1731E-3	-74.8032E-3	31.0271E-3	39.9827E-12	-858.072E-3	27.3399E-3
-86.6142E-3	-4.05426E-12	-87.0309E-3	-86.6142E-3	33.8051E-3	40.0605E-12	-862.891E-3	25.0890E-3
-98.4252E-3	-4.36404E-12	-98.8040E-3	-98.4252E-3	105.304E-3	40.0682E-12	-821.050E-3	23.9689E-3
-110.236E-3	-4.61616E-12	-110.663E-3	-110.236E-3	-889.879E-6	39.9686E-12	-845.356E-3	27.6337E-3
-122.047E-3	-4.84228E-12	-122.405E-3	-122.047E-3	-45.0658E-3	39.9834E-12	-864.615E-3	26.4064E-3
-133.858E-3	-5.04667E-12	-134.254E-3	-133.858E-3	8.13991E-3	40.0101E-12	-860.985E-3	25.6485E-3
-145.669E-3	-5.21165E-12	-146.049E-3	-145.669E-3	21.7595E-3	40.0048E-12	-862.647E-3	29.3588E-3
-157.480E-3	-5.47171E-12	-157.824E-3	-157.480E-3	-79.5892E-3	39.9979E-12	-900.263E-3	27.3681E-3
-169.291E-3	-5.66659E-12	-169.691E-3	-169.291E-3	93.5977E-3	40.0240E-12	-847.196E-3	23.7508E-3
-181.102E-3	-5.93578E-12	-181.437E-3	-181.102E-3	-62.3486E-3	39.9559E-12	-908.460E-3	29.2694E-3
-192.913E-3	-6.23268E-12	-193.250E-3	-192.913E-3	-787.299E-6	39.9539E-12	-916.672E-3	30.8298E-3
-204.724E-3	-6.49526E-12	-205.081E-3	-204.724E-3	-97.3200E-3	40.0323E-12	-947.546E-3	24.6870E-3
-216.535E-3	-6.68905E-12	-216.881E-3	-216.535E-3	-114.717E-3	39.9897E-12	-970.232E-3	25.8662E-3
-228.346E-3	-6.96761E-12	-228.701E-3	-228.346E-3	120.015E-3	39.9316E-12	-909.883E-3	29.5457E-3
-240.157E-3	-7.24892E-12	-240.497E-3	-240.157E-3	147.171E-3	40.0369E-12	-884.880E-3	26.0645E-3
-251.969E-3	-7.59924E-12	-252.313E-3	-251.969E-3	-103.070E-3	40.0516E-12	-961.514E-3	23.2691E-3
-263.780E-3	-7.89653E-12	-264.083E-3	-263.780E-3	-110.671E-3	40.0079E-12	-970.806E-3	27.5691E-3
-275.591E-3	-8.07508E-12	-275.886E-3	-275.591E-3	-72.2347E-3	39.9872E-12	-967.530E-3	26.5961E-3
-287.402E-3	-8.52785E-12	-287.727E-3	-287.402E-3	71.5740E-3	39.9709E-12	-944.153E-3	29.3697E-3
-299.213E-3	-8.53102E-12	-299.519E-3	-299.213E-3	-30.9632E-3	39.8757E-12	-969.218E-3	30.5733E-3
-311.024E-3	-9.04501E-12	-311.346E-3	-311.024E-3	14.1979E-3	40.0394E-12	-994.021E-3	27.3549E-3
-322.835E-3	-9.29140E-12	-323.141E-3	-322.835E-3	-105.935E-3	40.0142E-12	-1.03124E+0	24.8137E-3
-334.646E-3	-9.59499E-12	-334.921E-3	-334.646E-3	-19.3757E-3	39.9631E-12	-1.03229E+0	26.0739E-3
-346.457E-3	-9.85184E-12	-346.740E-3	-346.457E-3	53.2411E-3	39.9703E-12	-1.01933E+0	28.0713E-3
-358.268E-3	-10.2379E-12	-358.579E-3	-358.268E-3	14.3687E-3	40.0217E-12	-1.01975E+0	28.6559E-3
-370.079E-3	-10.5523E-12	-370.378E-3	-370.079E-3	-58.9476E-3	40.0270E-12	-1.05520E+0	27.9450E-3
-381.890E-3	-10.7658E-12	-382.144E-3	-381.890E-3	122.359E-3	39.9950E-12	-1.01516E+0	27.8750E-3
-393.701E-3	-11.0190E-12	-394.024E-3	-393.701E-3	-40.7768E-3	40.0129E-12	-1.08166E+0	26.4621E-3
-405.512E-3	-11.3321E-12	-405.825E-3	-405.512E-3	-88.3065E-3	40.0228E-12	-1.11526E+0	26.1870E-3
-417.323E-3	-11.6743E-12	-417.635E-3	-417.323E-3	76.6549E-3	39.9544E-12	-1.06730E+0	29.5988E-3
-429.134E-3	-11.9368E-12	-429.443E-3	-429.134E-3	-111.043E-3	39.9639E-12	-1.11927E+0	28.1579E-3
-440.945E-3	-12.2363E-12	-441.237E-3	-440.945E-3	-44.7265E-3	40.0403E-12	-1.10442E+0	24.5849E-3
-452.756E-3	-12.3732E-12	-453.053E-3	-452.756E-3	-47.6725E-3	40.0256E-12	-1.11522E+0	25.7854E-3
-464.567E-3	-12.7334E-12	-464.866E-3	-464.567E-3	102.391E-3	40.0032E-12	-1.06805E+0	25.8131E-3
-476.378E-3	-12.7913E-12	-476.684E-3	-476.378E-3	-215.230E-3	39.9504E-12	-1.16359E+0	29.1924E-3
-488.189E-3	-13.2034E-12	-488.418E-3	-488.189E-3	91.7636E-3	40.0577E-12	-1.10129E+0	25.2351E-3
-500.000E-3	-13.0966E-12	-500.264E-3	-500.000E-3	-15.4045E-3	40.0143E-12	-1.12445E+0	25.3633E-3
