Experiment	bias spectroscopy	
Date	01.12.2015 08:49:55	
User		
X (m)	282.544E-9	
Y (m)	-138.8E-9	
Z (m)	-4.07703E-9	
Z offset (m)	0E+0	
Settling time (s)	30E-3	
Integration time (s)	200E-3	
Z-Ctrl hold	TRUE	
Final Z (m)	-4.07703E-9	
Filter type	None	
Order		
Cutoff frq		
Current (A)	15.3971E-12	
Z (m)	-4.07703E-9	
Phase (deg)	-442.186E-3	
Amplitude (m)	40.1991E-12	
Frequency Shift (Hz)	-1.22464E+0	
Excitation (V)	12.0894E-3	

[DATA]
Bias calc (V)	Current (A)	Applied Voltage measured (V)	Bias (V)	Phase (deg)	Amplitude (m)	Frequency Shift (Hz)	Excitation (V)
1.00000E+0	15.3625E-12	999.324E-3	1.00000E+0	81.3790E-3	39.9983E-12	-1.05985E+0	25.9206E-3
988.189E-3	15.3017E-12	987.534E-3	988.189E-3	104.791E-3	40.0150E-12	-1.03856E+0	24.9316E-3
976.378E-3	15.2176E-12	975.758E-3	976.378E-3	-76.1790E-3	39.9876E-12	-1.10119E+0	26.7386E-3
964.567E-3	15.0956E-12	963.894E-3	964.567E-3	92.5618E-3	39.9877E-12	-1.05105E+0	25.3556E-3
952.756E-3	15.1530E-12	952.152E-3	952.756E-3	-50.8412E-3	40.0228E-12	-1.07616E+0	26.3691E-3
940.945E-3	14.8372E-12	940.313E-3	940.945E-3	113.292E-3	40.0217E-12	-1.02664E+0	26.4084E-3
929.134E-3	14.7726E-12	928.498E-3	929.134E-3	-7.71039E-3	39.9969E-12	-1.05844E+0	27.3631E-3
917.323E-3	14.5231E-12	916.745E-3	917.323E-3	-31.5643E-3	40.0657E-12	-1.06173E+0	23.1750E-3
905.512E-3	14.3213E-12	904.891E-3	905.512E-3	10.0085E-3	39.9279E-12	-1.02396E+0	24.4069E-3
893.701E-3	14.4107E-12	893.127E-3	893.701E-3	52.2278E-3	40.0228E-12	-1.00959E+0	25.3648E-3
881.890E-3	14.1829E-12	881.286E-3	881.890E-3	58.3190E-3	40.0327E-12	-1.01464E+0	24.0139E-3
870.079E-3	13.9581E-12	869.489E-3	870.079E-3	69.6367E-3	39.9958E-12	-992.902E-3	27.1423E-3
858.268E-3	13.8390E-12	857.665E-3	858.268E-3	-47.3439E-3	39.9721E-12	-1.01936E+0	26.3152E-3
846.457E-3	13.8735E-12	845.833E-3	846.457E-3	25.3488E-3	40.0291E-12	-1.01094E+0	22.7871E-3
834.646E-3	13.6566E-12	834.058E-3	834.646E-3	87.8828E-3	39.9441E-12	-969.606E-3	29.2339E-3
822.835E-3	13.5028E-12	822.252E-3	822.835E-3	24.2378E-3	39.9475E-12	-976.775E-3	26.2814E-3
811.024E-3	13.4257E-12	810.430E-3	811.024E-3	-113.206E-3	39.9755E-12	-1.02982E+0	28.3590E-3
799.213E-3	13.2343E-12	798.661E-3	799.213E-3	-70.8039E-3	40.0928E-12	-1.00695E+0	24.5260E-3
787.402E-3	13.0949E-12	786.827E-3	787.402E-3	34.0797E-3	40.0488E-12	-985.272E-3	23.4375E-3
775.591E-3	12.9163E-12	775.038E-3	775.591E-3	14.2968E-3	39.9921E-12	-990.894E-3	25.8486E-3
763.780E-3	12.7822E-12	763.214E-3	763.780E-3	-23.8219E-3	40.0057E-12	-1.01098E+0	26.3870E-3
751.969E-3	12.5316E-12	751.434E-3	751.969E-3	69.2239E-3	39.9762E-12	-976.648E-3	23.0009E-3
740.157E-3	12.4185E-12	739.624E-3	740.157E-3	-16.1259E-3	39.9505E-12	-985.091E-3	26.9239E-3
728.346E-3	12.3616E-12	727.795E-3	728.346E-3	-59.3917E-3	39.9832E-12	-1.01270E+0	25.1242E-3
716.535E-3	12.1273E-12	716.008E-3	716.535E-3	181.126E-3	40.0085E-12	-921.808E-3	25.3238E-3
704.724E-3	12.0072E-12	704.310E-3	704.724E-3	-81.0032E-3	39.9518E-12	-969.205E-3	25.9989E-3
692.913E-3	11.9462E-12	692.511E-3	692.913E-3	-14.6107E-3	40.0772E-12	-966.538E-3	24.1905E-3
681.102E-3	11.7060E-12	680.733E-3	681.102E-3	23.6173E-3	40.0465E-12	-966.679E-3	24.6072E-3
669.291E-3	11.4066E-12	668.917E-3	669.291E-3	92.2950E-3	39.9902E-12	-924.684E-3	26.0129E-3
657.480E-3	11.3236E-12	657.080E-3	657.480E-3	-63.9968E-3	39.9587E-12	-971.098E-3	27.1039E-3
645.669E-3	11.3243E-12	645.276E-3	645.669E-3	-156.734E-3	40.0026E-12	-1.01642E+0	28.4434E-3
633.858E-3	11.0201E-12	633.476E-3	633.858E-3	74.2281E-3	39.9989E-12	-955.504E-3	26.1266E-3
622.047E-3	10.8660E-12	621.670E-3	622.047E-3	26.3960E-3	39.9879E-12	-961.200E-3	23.7285E-3
610.236E-3	10.5768E-12	609.899E-3	610.236E-3	27.7074E-3	39.9484E-12	-939.482E-3	28.2254E-3
598.425E-3	10.6459E-12	598.092E-3	598.425E-3	87.7610E-3	39.9883E-12	-912.704E-3	27.6290E-3
586.614E-3	10.5387E-12	586.278E-3	586.614E-3	-184.541E-3	40.0057E-12	-1.00961E+0	24.8171E-3
574.803E-3	10.3557E-12	574.463E-3	574.803E-3	16.7422E-3	40.0025E-12	-958.810E-3	24.6427E-3
562.992E-3	9.99573E-12	562.687E-3	562.992E-3	134.765E-3	39.9815E-12	-919.792E-3	29.7927E-3
551.181E-3	9.90368E-12	550.873E-3	551.181E-3	8.40103E-3	39.9877E-12	-917.076E-3	26.0398E-3
539.370E-3	9.71436E-12	538.998E-3	539.370E-3	-148.606E-3	40.0728E-12	-994.380E-3	21.1398E-3
527.559E-3	9.56052E-12	527.223E-3	527.559E-3	12.5003E-3	40.0188E-12	-947.743E-3	23.7582E-3
515.748E-3	9.42665E-12	515.376E-3	515.748E-3	-179.830E-6	39.9455E-12	-940.001E-3	21.8574E-3
503.937E-3	9.15037E-12	503.595E-3	503.937E-3	-66.2251E-3	40.0093E-12	-973.621E-3	24.2860E-3
492.126E-3	9.03386E-12	491.773E-3	492.126E-3	20.6550E-3	39.9586E-12	-952.363E-3	26.7123E-3
480.315E-3	8.87332E-12	479.959E-3	480.315E-3	100.275E-3	39.9843E-12	-914.658E-3	28.6124E-3
468.504E-3	8.55264E-12	468.167E-3	468.504E-3	23.6804E-3	39.9878E-12	-930.144E-3	26.3032E-3
456.693E-3	8.55018E-12	456.353E-3	456.693E-3	59.8246E-3	39.9700E-12	-911.566E-3	27.0829E-3
444.882E-3	8.26044E-12	444.576E-3	444.882E-3	-162.703E-3	40.0087E-12	-984.713E-3	28.2193E-3
433.071E-3	8.13048E-12	432.753E-3	433.071E-3	-95.9087E-3	40.0145E-12	-1.00706E+0	27.7579E-3
421.260E-3	7.83962E-12	420.945E-3	421.260E-3	-23.5378E-3	39.9792E-12	-968.685E-3	25.1944E-3
409.449E-3	7.75381E-12	409.166E-3	409.449E-3	-3.27656E-3	39.9380E-12	-962.089E-3	28.9539E-3
397.638E-3	7.53333E-12	397.320E-3	397.638E-3	48.5603E-3	39.9896E-12	-923.435E-3	25.7583E-3
385.827E-3	7.40306E-12	385.562E-3	385.827E-3	-42.3964E-3	40.0271E-12	-945.948E-3	25.2679E-3
374.016E-3	7.17097E-12	373.719E-3	374.016E-3	-81.7034E-3	40.0108E-12	-1.00073E+0	27.6951E-3
362.205E-3	7.00228E-12	361.915E-3	362.205E-3	-21.8601E-3	39.9896E-12	-991.046E-3	23.6542E-3
350.394E-3	6.82698E-12	350.168E-3	350.394E-3	-26.8455E-3	40.0099E-12	-991.932E-3	23.9328E-3
338.583E-3	6.62928E-12	338.310E-3	338.583E-3	60.5876E-3	39.9451E-12	-975.540E-3	27.1297E-3
326.772E-3	6.36476E-12	326.517E-3	326.772E-3	124.784E-3	40.0617E-12	-933.014E-3	24.5785E-3
314.961E-3	6.21276E-12	314.692E-3	314.961E-3	-26.8572E-3	40.0107E-12	-989.034E-3	28.2142E-3
303.150E-3	6.03705E-12	302.872E-3	303.150E-3	-20.6780E-3	40.0764E-12	-989.694E-3	22.9806E-3
291.339E-3	5.78253E-12	291.118E-3	291.339E-3	-31.2712E-3	39.9646E-12	-988.399E-3	26.7130E-3
279.528E-3	5.57572E-12	279.294E-3	279.528E-3	-2.88353E-3	39.9598E-12	-963.800E-3	28.6386E-3
267.717E-3	5.39080E-12	267.481E-3	267.717E-3	33.2270E-3	39.9934E-12	-960.623E-3	28.1689E-3
255.906E-3	5.19672E-12	255.657E-3	255.906E-3	48.3485E-3	40.0103E-12	-951.851E-3	24.8591E-3
244.094E-3	4.97690E-12	243.870E-3	244.094E-3	34.0389E-3	39.9702E-12	-961.564E-3	27.1617E-3
232.283E-3	4.81276E-12	232.015E-3	232.283E-3	-92.7053E-3	40.0267E-12	-995.197E-3	24.5966E-3
220.472E-3	4.51085E-12	220.185E-3	220.472E-3	-16.9975E-3	39.9654E-12	-1.01644E+0	25.7281E-3
208.661E-3	4.35395E-12	208.406E-3	208.661E-3	-69.2351E-3	39.9630E-12	-1.02063E+0	27.9787E-3
196.850E-3	4.08536E-12	196.575E-3	196.850E-3	11.5188E-3	39.9737E-12	-986.227E-3	27.6072E-3
185.039E-3	3.88070E-12	184.804E-3	185.039E-3	-30.6280E-3	40.0610E-12	-1.00667E+0	24.3287E-3
173.228E-3	3.61810E-12	172.995E-3	173.228E-3	-152.349E-3	40.0237E-12	-1.05659E+0	23.6063E-3
161.417E-3	3.40044E-12	161.163E-3	161.417E-3	48.2188E-3	39.9849E-12	-993.905E-3	25.4280E-3
149.606E-3	3.18235E-12	149.337E-3	149.606E-3	-52.0714E-3	39.9726E-12	-1.02600E+0	28.0173E-3
137.795E-3	2.93934E-12	137.550E-3	137.795E-3	5.03865E-3	40.0249E-12	-1.00193E+0	25.5386E-3
125.984E-3	2.66069E-12	125.784E-3	125.984E-3	-146.941E-3	40.0238E-12	-1.06288E+0	26.4168E-3
114.173E-3	2.42830E-12	113.942E-3	114.173E-3	-73.2163E-3	39.9894E-12	-1.04321E+0	25.7208E-3
102.362E-3	2.14517E-12	102.144E-3	102.362E-3	-187.987E-3	39.9927E-12	-1.09419E+0	26.4325E-3
90.5512E-3	1.90688E-12	90.3363E-3	90.5512E-3	-49.7945E-3	39.9779E-12	-1.06100E+0	29.4226E-3
78.7402E-3	1.68208E-12	78.5036E-3	78.7402E-3	83.5796E-3	40.0273E-12	-1.01910E+0	24.4281E-3
66.9291E-3	1.42948E-12	66.6308E-3	66.9291E-3	-25.2950E-3	39.9766E-12	-1.06175E+0	29.7383E-3
55.1181E-3	1.18565E-12	54.8602E-3	55.1181E-3	100.595E-3	40.0404E-12	-1.03713E+0	26.4975E-3
43.3071E-3	916.336E-15	43.0466E-3	43.3071E-3	-122.504E-3	40.0237E-12	-1.10797E+0	25.7546E-3
31.4961E-3	638.133E-15	31.2095E-3	31.4961E-3	94.2195E-3	39.9969E-12	-1.04823E+0	25.9312E-3
19.6850E-3	359.560E-15	19.4066E-3	19.6850E-3	-65.7445E-3	40.0110E-12	-1.10522E+0	28.2379E-3
7.87402E-3	77.4129E-15	7.55690E-3	7.87402E-3	-30.4032E-3	40.0065E-12	-1.11619E+0	28.9517E-3
-3.93701E-3	-230.432E-15	-4.33046E-3	-3.93701E-3	-116.882E-3	39.9706E-12	-1.15127E+0	27.3995E-3
-15.7480E-3	-542.632E-15	-16.1052E-3	-15.7480E-3	67.5429E-3	40.0549E-12	-1.10301E+0	24.6491E-3
-27.5591E-3	-863.304E-15	-27.9211E-3	-27.5591E-3	28.0052E-3	40.0199E-12	-1.09802E+0	26.0712E-3
-39.3701E-3	-1.19152E-12	-39.6928E-3	-39.3701E-3	-168.644E-3	40.0235E-12	-1.17361E+0	25.9886E-3
-51.1811E-3	-1.52727E-12	-51.5469E-3	-51.1811E-3	-49.9729E-3	40.0178E-12	-1.15471E+0	26.9998E-3
-62.9921E-3	-1.87887E-12	-63.3206E-3	-62.9921E-3	169.598E-3	40.0898E-12	-1.08387E+0	22.8215E-3
-74.8032E-3	-2.12695E-12	-75.1655E-3	-74.8032E-3	-197.511E-3	39.9813E-12	-1.20483E+0	25.1773E-3
-86.6142E-3	-2.23973E-12	-87.0108E-3	-86.6142E-3	135.273E-3	39.9674E-12	-1.10247E+0	24.8401E-3
-98.4252E-3	-2.37424E-12	-98.7905E-3	-98.4252E-3	-145.520E-3	40.0419E-12	-1.18558E+0	26.4533E-3
-110.236E-3	-2.48092E-12	-110.648E-3	-110.236E-3	-78.8097E-3	39.9699E-12	-1.17069E+0	28.4485E-3
-122.047E-3	-2.55948E-12	-122.388E-3	-122.047E-3	12.5710E-3	39.9011E-12	-1.15689E+0	28.4106E-3
-133.858E-3	-2.76470E-12	-134.233E-3	-133.858E-3	-240.664E-3	40.0244E-12	-1.24788E+0	27.3404E-3
-145.669E-3	-2.92028E-12	-146.032E-3	-145.669E-3	82.6560E-3	40.0050E-12	-1.16879E+0	26.6084E-3
-157.480E-3	-3.05007E-12	-157.803E-3	-157.480E-3	-25.1244E-3	39.9276E-12	-1.19116E+0	26.0400E-3
-169.291E-3	-3.22420E-12	-169.673E-3	-169.291E-3	-25.9570E-3	40.0269E-12	-1.21546E+0	28.2470E-3
-181.102E-3	-3.32764E-12	-181.417E-3	-181.102E-3	-16.2475E-3	39.9443E-12	-1.21291E+0	28.2914E-3
-192.913E-3	-3.48978E-12	-193.236E-3	-192.913E-3	47.3481E-3	39.9756E-12	-1.17691E+0	27.4431E-3
-204.724E-3	-3.60045E-12	-205.062E-3	-204.724E-3	-35.6808E-3	39.9412E-12	-1.22024E+0	25.5733E-3
-216.535E-3	-3.77066E-12	-216.860E-3	-216.535E-3	-187.862E-3	39.9610E-12	-1.30067E+0	30.0065E-3
-228.346E-3	-3.85971E-12	-228.680E-3	-228.346E-3	55.7050E-3	39.9854E-12	-1.24949E+0	27.1568E-3
-240.157E-3	-4.03622E-12	-240.481E-3	-240.157E-3	132.094E-3	40.0368E-12	-1.21819E+0	28.3311E-3
-251.969E-3	-4.15219E-12	-252.299E-3	-251.969E-3	-114.679E-3	39.9928E-12	-1.29076E+0	25.5908E-3
-263.780E-3	-4.40380E-12	-264.070E-3	-263.780E-3	-12.3355E-3	40.0890E-12	-1.28587E+0	26.8560E-3
-275.591E-3	-4.53487E-12	-275.875E-3	-275.591E-3	3.05086E-3	39.8809E-12	-1.26365E+0	27.3666E-3
-287.402E-3	-4.70186E-12	-287.719E-3	-287.402E-3	-118.092E-3	40.0406E-12	-1.33009E+0	25.8665E-3
-299.213E-3	-4.83827E-12	-299.505E-3	-299.213E-3	10.3750E-3	40.0331E-12	-1.29762E+0	23.9669E-3
-311.024E-3	-5.01194E-12	-311.333E-3	-311.024E-3	41.4113E-3	39.9729E-12	-1.29537E+0	28.5626E-3
-322.835E-3	-5.23776E-12	-323.124E-3	-322.835E-3	-9.07334E-3	40.0712E-12	-1.32239E+0	22.8864E-3
-334.646E-3	-5.27252E-12	-334.896E-3	-334.646E-3	-112.543E-3	39.9833E-12	-1.38905E+0	28.0643E-3
-346.457E-3	-5.40149E-12	-346.712E-3	-346.457E-3	-70.9521E-3	40.0109E-12	-1.38967E+0	25.2200E-3
-358.268E-3	-5.48931E-12	-358.558E-3	-358.268E-3	-71.5642E-3	39.9704E-12	-1.39459E+0	25.5081E-3
-370.079E-3	-5.70402E-12	-370.361E-3	-370.079E-3	-51.7673E-3	40.0341E-12	-1.39944E+0	26.0176E-3
-381.890E-3	-5.72737E-12	-382.115E-3	-381.890E-3	-2.60255E-3	39.9984E-12	-1.41735E+0	25.2707E-3
-393.701E-3	-5.94906E-12	-393.996E-3	-393.701E-3	43.8339E-3	39.9995E-12	-1.38361E+0	24.4340E-3
-405.512E-3	-5.95916E-12	-405.809E-3	-405.512E-3	-113.173E-3	40.0170E-12	-1.43448E+0	26.8780E-3
-417.323E-3	-6.15425E-12	-417.613E-3	-417.323E-3	17.3146E-3	40.0110E-12	-1.42922E+0	27.5051E-3
-429.134E-3	-6.31698E-12	-429.421E-3	-429.134E-3	-101.028E-3	40.0079E-12	-1.45219E+0	25.9271E-3
-440.945E-3	-6.46211E-12	-441.219E-3	-440.945E-3	-18.6738E-3	40.0423E-12	-1.45547E+0	25.1306E-3
-452.756E-3	-6.69940E-12	-453.020E-3	-452.756E-3	-22.7896E-3	40.0129E-12	-1.46462E+0	24.9865E-3
-464.567E-3	-6.94738E-12	-464.846E-3	-464.567E-3	122.214E-3	40.0646E-12	-1.43754E+0	24.3403E-3
-476.378E-3	-7.15158E-12	-476.666E-3	-476.378E-3	-21.3993E-3	39.9889E-12	-1.46590E+0	25.7334E-3
-488.189E-3	-7.53840E-12	-488.392E-3	-488.189E-3	-200.522E-3	39.9469E-12	-1.56110E+0	27.0522E-3
-500.000E-3	-7.85000E-12	-500.226E-3	-500.000E-3	-43.2794E-3	40.0275E-12	-1.54385E+0	26.2787E-3
