Experiment	bias spectroscopy	
Date	30.11.2015 21:45:03	
User		
X (m)	29.1969E-9	
Y (m)	-165.494E-9	
Z (m)	-3.75578E-9	
Z offset (m)	0E+0	
Settling time (s)	30E-3	
Integration time (s)	200E-3	
Z-Ctrl hold	TRUE	
Final Z (m)	-3.75578E-9	
Filter type	None	
Order		
Cutoff frq		
Current (A)	124.329E-12	
Z (m)	-3.75578E-9	
Phase (deg)	-450.052E-3	
Amplitude (m)	39.5997E-12	
Frequency Shift (Hz)	-680.616E-3	
Excitation (V)	40.9487E-3	

[DATA]
Bias calc (V)	Current (A)	Applied Voltage measured (V)	Bias (V)	Phase (deg)	Amplitude (m)	Frequency Shift (Hz)	Excitation (V)
1.00000E+0	123.230E-12	999.322E-3	1.00000E+0	-22.7043E-3	39.8029E-12	-555.371E-3	24.6047E-3
988.189E-3	122.494E-12	987.531E-3	988.189E-3	354.805E-3	40.1138E-12	-406.804E-3	20.8941E-3
976.378E-3	121.178E-12	975.762E-3	976.378E-3	150.437E-3	40.0371E-12	-434.727E-3	22.7153E-3
964.567E-3	119.395E-12	963.901E-3	964.567E-3	-29.3758E-3	39.8910E-12	-481.672E-3	23.3946E-3
952.756E-3	119.297E-12	952.146E-3	952.756E-3	-134.172E-3	39.9740E-12	-537.362E-3	24.5653E-3
940.945E-3	117.247E-12	940.303E-3	940.945E-3	151.891E-3	39.9955E-12	-441.205E-3	22.5620E-3
929.134E-3	116.631E-12	928.489E-3	929.134E-3	54.9824E-3	40.1050E-12	-471.705E-3	20.2846E-3
917.323E-3	115.489E-12	916.733E-3	917.323E-3	-143.016E-3	39.9517E-12	-565.639E-3	22.0564E-3
905.512E-3	115.056E-12	904.880E-3	905.512E-3	102.813E-3	39.9829E-12	-453.133E-3	22.8796E-3
893.701E-3	113.147E-12	893.125E-3	893.701E-3	-106.606E-3	39.9898E-12	-519.511E-3	18.2386E-3
881.890E-3	112.956E-12	881.278E-3	881.890E-3	159.017E-3	40.0982E-12	-436.085E-3	20.8308E-3
870.079E-3	111.025E-12	869.476E-3	870.079E-3	91.6911E-3	39.9527E-12	-432.908E-3	25.8761E-3
858.268E-3	110.649E-12	857.656E-3	858.268E-3	-74.5742E-3	40.2078E-12	-420.661E-3	19.7226E-3
846.457E-3	109.119E-12	845.820E-3	846.457E-3	-143.456E-3	40.1084E-12	-449.015E-3	22.1866E-3
834.646E-3	107.793E-12	834.044E-3	834.646E-3	-180.103E-3	39.9692E-12	-506.151E-3	21.0465E-3
822.835E-3	106.058E-12	822.233E-3	822.835E-3	-95.2380E-3	39.9720E-12	-528.501E-3	21.3107E-3
811.024E-3	105.475E-12	810.409E-3	811.024E-3	-150.731E-3	39.9696E-12	-501.666E-3	22.8787E-3
799.213E-3	104.440E-12	798.638E-3	799.213E-3	-51.5587E-3	40.1050E-12	-462.568E-3	22.1155E-3
787.402E-3	103.371E-12	786.798E-3	787.402E-3	213.121E-3	40.0284E-12	-373.011E-3	24.0804E-3
775.591E-3	101.806E-12	775.015E-3	775.591E-3	71.7336E-3	40.0197E-12	-400.242E-3	25.6363E-3
763.780E-3	100.570E-12	763.190E-3	763.780E-3	-174.158E-3	39.9136E-12	-506.753E-3	26.7305E-3
751.969E-3	99.5817E-12	751.412E-3	751.969E-3	-58.0075E-3	40.0642E-12	-468.407E-3	18.8707E-3
740.157E-3	98.7674E-12	739.615E-3	740.157E-3	-159.550E-3	39.9854E-12	-518.314E-3	22.5972E-3
728.346E-3	97.1053E-12	727.781E-3	728.346E-3	89.2813E-3	39.9553E-12	-441.237E-3	22.4993E-3
716.535E-3	96.8421E-12	715.993E-3	716.535E-3	-275.311E-3	40.0949E-12	-549.410E-3	21.9254E-3
704.724E-3	95.4137E-12	704.299E-3	704.724E-3	54.1106E-3	40.0004E-12	-468.821E-3	23.9098E-3
692.913E-3	94.0373E-12	692.502E-3	692.913E-3	131.218E-3	40.0260E-12	-436.350E-3	24.9301E-3
681.102E-3	93.3779E-12	680.723E-3	681.102E-3	-18.0456E-3	40.0535E-12	-447.008E-3	21.4551E-3
669.291E-3	91.6322E-12	668.898E-3	669.291E-3	79.8949E-3	39.9995E-12	-431.837E-3	23.8417E-3
657.480E-3	89.7699E-12	657.072E-3	657.480E-3	-316.449E-3	39.9393E-12	-541.880E-3	21.0237E-3
645.669E-3	88.7553E-12	645.271E-3	645.669E-3	-183.093E-3	39.8751E-12	-582.592E-3	21.4063E-3
633.858E-3	87.6325E-12	633.459E-3	633.858E-3	-166.749E-3	40.0131E-12	-574.191E-3	25.3243E-3
622.047E-3	86.7225E-12	621.653E-3	622.047E-3	320.583E-3	40.1024E-12	-385.475E-3	20.9001E-3
610.236E-3	85.8227E-12	609.890E-3	610.236E-3	-15.6242E-3	40.0784E-12	-462.492E-3	21.7134E-3
598.425E-3	84.0301E-12	598.083E-3	598.425E-3	59.5670E-3	39.8512E-12	-442.962E-3	28.2166E-3
586.614E-3	83.3580E-12	586.276E-3	586.614E-3	-62.5379E-3	40.1286E-12	-467.526E-3	20.6104E-3
574.803E-3	81.7136E-12	574.456E-3	574.803E-3	65.1411E-3	39.8957E-12	-451.536E-3	25.3678E-3
562.992E-3	80.8631E-12	562.675E-3	562.992E-3	-129.529E-3	40.1079E-12	-500.524E-3	24.1308E-3
551.181E-3	79.3897E-12	550.863E-3	551.181E-3	7.48991E-3	40.0126E-12	-493.925E-3	23.8237E-3
539.370E-3	78.0735E-12	538.994E-3	539.370E-3	-204.029E-3	39.9706E-12	-611.184E-3	21.3064E-3
527.559E-3	76.7572E-12	527.206E-3	527.559E-3	365.019E-3	40.0164E-12	-394.741E-3	26.6504E-3
515.748E-3	75.3466E-12	515.378E-3	515.748E-3	-163.769E-3	39.9858E-12	-528.243E-3	23.6951E-3
503.937E-3	74.5642E-12	503.587E-3	503.937E-3	-69.0405E-3	39.9517E-12	-528.024E-3	20.9936E-3
492.126E-3	72.4148E-12	491.761E-3	492.126E-3	13.4126E-3	40.0073E-12	-500.618E-3	23.8989E-3
480.315E-3	71.5264E-12	479.954E-3	480.315E-3	181.499E-3	40.0344E-12	-443.630E-3	24.9175E-3
468.504E-3	70.0517E-12	468.152E-3	468.504E-3	-114.434E-3	39.9595E-12	-571.710E-3	23.1138E-3
456.693E-3	68.2550E-12	456.342E-3	456.693E-3	25.9889E-3	40.0039E-12	-495.510E-3	21.8767E-3
444.882E-3	67.2885E-12	444.575E-3	444.882E-3	13.6664E-3	39.9885E-12	-485.862E-3	25.1569E-3
433.071E-3	66.2073E-12	432.742E-3	433.071E-3	-256.539E-3	40.0922E-12	-562.925E-3	23.7306E-3
421.260E-3	64.7197E-12	420.926E-3	421.260E-3	-36.1370E-3	39.9982E-12	-531.138E-3	24.2895E-3
409.449E-3	63.0664E-12	409.149E-3	409.449E-3	-12.4229E-3	39.9944E-12	-518.921E-3	22.0779E-3
397.638E-3	61.7701E-12	397.301E-3	397.638E-3	-205.179E-3	39.8428E-12	-592.074E-3	26.7888E-3
385.827E-3	60.1452E-12	385.532E-3	385.827E-3	-90.7467E-3	40.0338E-12	-562.469E-3	24.4095E-3
374.016E-3	59.0329E-12	373.696E-3	374.016E-3	161.011E-3	40.0515E-12	-470.887E-3	26.2185E-3
362.205E-3	57.4426E-12	361.901E-3	362.205E-3	-193.863E-3	40.0969E-12	-592.319E-3	22.5177E-3
350.394E-3	55.9174E-12	350.149E-3	350.394E-3	161.330E-3	39.9995E-12	-488.532E-3	25.4444E-3
338.583E-3	54.0872E-12	338.294E-3	338.583E-3	23.0053E-3	39.9983E-12	-530.064E-3	26.1303E-3
326.772E-3	52.7489E-12	326.506E-3	326.772E-3	37.2067E-3	39.9501E-12	-539.774E-3	25.1784E-3
314.961E-3	51.2680E-12	314.672E-3	314.961E-3	99.1123E-3	40.0754E-12	-507.484E-3	22.5874E-3
303.150E-3	49.0179E-12	302.844E-3	303.150E-3	-9.58333E-3	40.0078E-12	-539.692E-3	25.7311E-3
291.339E-3	47.4531E-12	291.099E-3	291.339E-3	-8.76260E-3	40.0491E-12	-571.203E-3	24.0476E-3
279.528E-3	46.0328E-12	279.265E-3	279.528E-3	-11.6743E-3	39.9866E-12	-576.468E-3	25.6664E-3
267.717E-3	44.3390E-12	267.453E-3	267.717E-3	-111.395E-3	40.1163E-12	-620.219E-3	24.3651E-3
255.906E-3	42.5249E-12	255.626E-3	255.906E-3	96.2186E-3	39.9977E-12	-582.498E-3	25.3319E-3
244.094E-3	40.7278E-12	243.841E-3	244.094E-3	-9.15491E-3	40.0505E-12	-612.132E-3	25.5614E-3
232.283E-3	39.1495E-12	231.997E-3	232.283E-3	-68.5865E-3	40.0539E-12	-662.133E-3	24.5292E-3
220.472E-3	36.6912E-12	220.176E-3	220.472E-3	158.893E-3	39.9738E-12	-597.275E-3	23.3993E-3
208.661E-3	34.8431E-12	208.403E-3	208.661E-3	-31.7389E-3	39.9780E-12	-655.851E-3	29.4030E-3
196.850E-3	32.9242E-12	196.564E-3	196.850E-3	163.605E-3	40.0012E-12	-589.134E-3	25.3918E-3
185.039E-3	31.0922E-12	184.788E-3	185.039E-3	-5.77654E-3	39.9934E-12	-647.266E-3	25.2998E-3
173.228E-3	29.0768E-12	172.981E-3	173.228E-3	-89.4461E-3	40.0608E-12	-686.007E-3	21.9669E-3
161.417E-3	27.0053E-12	161.144E-3	161.417E-3	89.7148E-3	40.0508E-12	-635.387E-3	24.4659E-3
149.606E-3	24.6662E-12	149.321E-3	149.606E-3	47.1267E-3	40.0118E-12	-651.293E-3	25.2401E-3
137.795E-3	22.7357E-12	137.526E-3	137.795E-3	-49.4311E-3	39.9604E-12	-696.120E-3	26.2076E-3
125.984E-3	20.6313E-12	125.769E-3	125.984E-3	-76.2698E-3	40.0649E-12	-733.478E-3	24.2916E-3
114.173E-3	18.6906E-12	113.934E-3	114.173E-3	42.9511E-3	39.9893E-12	-707.097E-3	28.5955E-3
102.362E-3	16.5162E-12	102.131E-3	102.362E-3	-24.8680E-3	39.9747E-12	-738.894E-3	27.5664E-3
90.5512E-3	14.6684E-12	90.3237E-3	90.5512E-3	74.4650E-3	39.9667E-12	-704.249E-3	29.5685E-3
78.7402E-3	12.6917E-12	78.4833E-3	78.7402E-3	-8.70277E-3	40.0843E-12	-734.570E-3	24.8578E-3
66.9291E-3	10.5253E-12	66.6080E-3	66.9291E-3	50.8412E-3	39.9804E-12	-734.961E-3	26.5078E-3
55.1181E-3	8.53947E-12	54.8353E-3	55.1181E-3	-14.8998E-3	39.9302E-12	-747.115E-3	27.7362E-3
43.3071E-3	6.60897E-12	43.0092E-3	43.3071E-3	66.0803E-3	40.0810E-12	-734.865E-3	24.6656E-3
31.4961E-3	4.74603E-12	31.1825E-3	31.4961E-3	-55.5745E-3	39.9828E-12	-791.758E-3	27.1688E-3
19.6850E-3	3.02387E-12	19.3879E-3	19.6850E-3	-51.8679E-3	40.0894E-12	-806.910E-3	24.6032E-3
7.87402E-3	1.12380E-12	7.53743E-3	7.87402E-3	-58.8993E-3	39.9947E-12	-834.113E-3	26.5100E-3
-3.93701E-3	-604.380E-15	-4.34156E-3	-3.93701E-3	17.0342E-3	39.9679E-12	-816.645E-3	26.1419E-3
-15.7480E-3	-2.44532E-12	-16.1172E-3	-15.7480E-3	72.9280E-3	40.0707E-12	-805.834E-3	24.2506E-3
-27.5591E-3	-4.19580E-12	-27.9395E-3	-27.5591E-3	-87.4710E-3	39.9581E-12	-854.078E-3	29.7124E-3
-39.3701E-3	-5.93883E-12	-39.7121E-3	-39.3701E-3	-46.1920E-3	40.0389E-12	-859.325E-3	25.7718E-3
-51.1811E-3	-7.52173E-12	-51.5639E-3	-51.1811E-3	-9.95162E-3	40.0238E-12	-849.354E-3	25.6967E-3
-62.9921E-3	-9.21711E-12	-63.3429E-3	-62.9921E-3	-146.194E-3	39.9913E-12	-890.899E-3	30.3297E-3
-74.8032E-3	-10.3527E-12	-75.1743E-3	-74.8032E-3	-122.756E-3	40.0165E-12	-919.454E-3	29.8009E-3
-86.6142E-3	-11.0314E-12	-87.0293E-3	-86.6142E-3	125.762E-3	39.9415E-12	-869.336E-3	28.0553E-3
-98.4252E-3	-11.8461E-12	-98.8045E-3	-98.4252E-3	-98.8008E-3	39.9552E-12	-925.790E-3	31.0460E-3
-110.236E-3	-12.5578E-12	-110.664E-3	-110.236E-3	88.9159E-3	39.9320E-12	-877.845E-3	27.0263E-3
-122.047E-3	-13.1348E-12	-122.405E-3	-122.047E-3	-228.240E-3	39.9729E-12	-973.365E-3	30.4555E-3
-133.858E-3	-13.9881E-12	-134.250E-3	-133.858E-3	147.644E-3	40.0662E-12	-897.993E-3	25.7511E-3
-145.669E-3	-14.5753E-12	-146.045E-3	-145.669E-3	74.1451E-3	40.0120E-12	-894.566E-3	27.5027E-3
-157.480E-3	-15.0110E-12	-157.819E-3	-157.480E-3	-159.973E-3	39.9604E-12	-984.843E-3	29.2288E-3
-169.291E-3	-15.7086E-12	-169.693E-3	-169.291E-3	68.8236E-3	39.9831E-12	-926.810E-3	28.1249E-3
-181.102E-3	-16.2716E-12	-181.440E-3	-181.102E-3	90.3436E-3	40.0208E-12	-915.799E-3	28.9324E-3
-192.913E-3	-16.9576E-12	-193.258E-3	-192.913E-3	-186.502E-3	40.0186E-12	-1.02700E+0	27.0028E-3
-204.724E-3	-17.8866E-12	-205.085E-3	-204.724E-3	-29.6170E-3	40.0368E-12	-980.265E-3	25.3508E-3
-216.535E-3	-18.5582E-12	-216.888E-3	-216.535E-3	131.808E-3	39.9749E-12	-932.223E-3	27.8024E-3
-228.346E-3	-19.5431E-12	-228.704E-3	-228.346E-3	-74.8982E-3	39.9790E-12	-1.00790E+0	28.0187E-3
-240.157E-3	-20.3175E-12	-240.492E-3	-240.157E-3	98.4702E-3	40.1056E-12	-957.230E-3	22.6454E-3
-251.969E-3	-20.9247E-12	-252.317E-3	-251.969E-3	-120.921E-3	39.9689E-12	-1.03938E+0	27.5446E-3
-263.780E-3	-21.6935E-12	-264.086E-3	-263.780E-3	-42.7883E-3	39.9174E-12	-1.03044E+0	28.3427E-3
-275.591E-3	-22.6633E-12	-275.893E-3	-275.591E-3	-72.0846E-3	40.0491E-12	-1.07063E+0	27.4060E-3
-287.402E-3	-23.2847E-12	-287.728E-3	-287.402E-3	-139.466E-3	40.0031E-12	-1.10212E+0	30.4732E-3
-299.213E-3	-24.0886E-12	-299.517E-3	-299.213E-3	-24.0682E-3	39.9913E-12	-1.09745E+0	27.9542E-3
-311.024E-3	-24.9327E-12	-311.351E-3	-311.024E-3	67.2774E-3	39.9701E-12	-1.06801E+0	25.6753E-3
-322.835E-3	-25.7924E-12	-323.150E-3	-322.835E-3	-21.4024E-3	40.0072E-12	-1.10938E+0	27.5659E-3
-334.646E-3	-26.7849E-12	-334.920E-3	-334.646E-3	20.9879E-3	40.0243E-12	-1.10860E+0	28.6677E-3
-346.457E-3	-27.4103E-12	-346.737E-3	-346.457E-3	-15.8835E-3	39.9816E-12	-1.14074E+0	29.9925E-3
-358.268E-3	-28.2845E-12	-358.577E-3	-358.268E-3	35.6635E-3	40.0197E-12	-1.11167E+0	26.4071E-3
-370.079E-3	-29.0517E-12	-370.375E-3	-370.079E-3	-99.9911E-3	39.9827E-12	-1.16367E+0	29.9661E-3
-381.890E-3	-30.2439E-12	-382.142E-3	-381.890E-3	-76.1677E-3	39.9262E-12	-1.15059E+0	31.5497E-3
-393.701E-3	-30.7380E-12	-394.015E-3	-393.701E-3	-118.007E-3	40.0169E-12	-1.18505E+0	30.4840E-3
-405.512E-3	-31.6150E-12	-405.829E-3	-405.512E-3	-8.34403E-3	40.0044E-12	-1.13922E+0	28.6122E-3
-417.323E-3	-32.3323E-12	-417.622E-3	-417.323E-3	-155.763E-3	39.9583E-12	-1.21532E+0	28.9532E-3
-429.134E-3	-33.0448E-12	-429.427E-3	-429.134E-3	50.0255E-3	39.9560E-12	-1.18021E+0	31.2014E-3
-440.945E-3	-33.5755E-12	-441.234E-3	-440.945E-3	-94.8241E-3	39.9864E-12	-1.22839E+0	30.4194E-3
-452.756E-3	-34.8012E-12	-453.040E-3	-452.756E-3	-90.2363E-3	40.0544E-12	-1.26428E+0	29.2861E-3
-464.567E-3	-34.6430E-12	-464.874E-3	-464.567E-3	46.2030E-3	39.9102E-12	-1.23278E+0	30.1664E-3
-476.378E-3	-35.5103E-12	-476.701E-3	-476.378E-3	-228.230E-3	40.0037E-12	-1.33055E+0	30.7258E-3
-488.189E-3	-36.1266E-12	-488.425E-3	-488.189E-3	121.537E-3	40.0587E-12	-1.22159E+0	26.6996E-3
-500.000E-3	-36.4788E-12	-500.262E-3	-500.000E-3	-70.9738E-3	40.0716E-12	-1.29793E+0	27.9013E-3
