Experiment	bias spectroscopy	
Date	01.12.2015 06:23:53	
User		
X (m)	281.616E-9	
Y (m)	-138.546E-9	
Z (m)	-4.07703E-9	
Z offset (m)	0E+0	
Settling time (s)	30E-3	
Integration time (s)	200E-3	
Z-Ctrl hold	TRUE	
Final Z (m)	-4.07703E-9	
Filter type	None	
Order		
Cutoff frq		
Current (A)	15.2553E-12	
Z (m)	-4.07703E-9	
Phase (deg)	-187.848E-3	
Amplitude (m)	39.7651E-12	
Frequency Shift (Hz)	-1.11641E+0	
Excitation (V)	35.863E-3	

[DATA]
Bias calc (V)	Current (A)	Applied Voltage measured (V)	Bias (V)	Phase (deg)	Amplitude (m)	Frequency Shift (Hz)	Excitation (V)
1.00000E+0	15.5795E-12	999.342E-3	1.00000E+0	78.7387E-3	40.0547E-12	-1.07224E+0	22.9458E-3
988.189E-3	15.8613E-12	987.541E-3	988.189E-3	-9.96122E-3	39.9725E-12	-1.06806E+0	24.0463E-3
976.378E-3	16.1844E-12	975.771E-3	976.378E-3	-51.0259E-3	39.9964E-12	-1.08159E+0	25.1306E-3
964.567E-3	15.3904E-12	963.903E-3	964.567E-3	-25.5969E-3	39.9541E-12	-1.07695E+0	28.0676E-3
952.756E-3	15.0557E-12	952.149E-3	952.756E-3	-86.2448E-3	40.0127E-12	-1.08785E+0	26.5270E-3
940.945E-3	14.9907E-12	940.315E-3	940.945E-3	107.042E-3	40.0505E-12	-1.01471E+0	23.3344E-3
929.134E-3	14.7822E-12	928.503E-3	929.134E-3	16.1680E-3	39.9536E-12	-1.03402E+0	26.9780E-3
917.323E-3	14.5550E-12	916.756E-3	917.323E-3	-98.0099E-3	40.0514E-12	-1.07339E+0	24.5047E-3
905.512E-3	14.0471E-12	904.887E-3	905.512E-3	157.979E-3	39.8977E-12	-1.00452E+0	29.2895E-3
893.701E-3	14.1764E-12	893.129E-3	893.701E-3	62.2356E-3	40.0194E-12	-998.861E-3	26.0153E-3
881.890E-3	13.8881E-12	881.291E-3	881.890E-3	-25.3702E-3	40.0512E-12	-1.02927E+0	23.6429E-3
870.079E-3	13.7518E-12	869.477E-3	870.079E-3	-2.83687E-3	40.0025E-12	-1.01547E+0	23.5878E-3
858.268E-3	13.4931E-12	857.656E-3	858.268E-3	32.4627E-3	39.8839E-12	-996.762E-3	28.0763E-3
846.457E-3	13.4889E-12	845.822E-3	846.457E-3	63.2824E-3	40.0579E-12	-993.971E-3	23.2144E-3
834.646E-3	13.3819E-12	834.045E-3	834.646E-3	104.979E-3	40.0249E-12	-987.880E-3	24.3890E-3
822.835E-3	13.1630E-12	822.227E-3	822.835E-3	-96.1231E-3	39.9245E-12	-1.01905E+0	26.6325E-3
811.024E-3	12.9844E-12	810.408E-3	811.024E-3	67.6157E-3	40.0401E-12	-971.946E-3	25.7227E-3
799.213E-3	12.8489E-12	798.636E-3	799.213E-3	97.9266E-3	40.0243E-12	-932.790E-3	25.8484E-3
787.402E-3	12.9830E-12	786.815E-3	787.402E-3	-150.601E-3	39.9864E-12	-1.01566E+0	24.2138E-3
775.591E-3	12.6351E-12	775.025E-3	775.591E-3	-64.1018E-3	39.9405E-12	-995.824E-3	25.6549E-3
763.780E-3	12.5615E-12	763.194E-3	763.780E-3	47.6507E-3	40.0418E-12	-967.296E-3	25.9118E-3
751.969E-3	12.3768E-12	751.418E-3	751.969E-3	39.6179E-3	39.9800E-12	-964.203E-3	27.1375E-3
740.157E-3	12.2498E-12	739.620E-3	740.157E-3	-105.164E-3	40.0073E-12	-1.00672E+0	26.8485E-3
728.346E-3	12.0055E-12	727.788E-3	728.346E-3	61.6401E-3	39.9790E-12	-941.587E-3	27.0779E-3
716.535E-3	11.8747E-12	716.005E-3	716.535E-3	170.715E-3	39.9935E-12	-895.702E-3	25.5429E-3
704.724E-3	11.7328E-12	704.307E-3	704.724E-3	81.0379E-3	40.0042E-12	-896.542E-3	26.0472E-3
692.913E-3	11.6281E-12	692.507E-3	692.913E-3	-220.824E-3	40.0187E-12	-1.00894E+0	26.2168E-3
681.102E-3	11.5253E-12	680.729E-3	681.102E-3	115.399E-3	40.0157E-12	-935.580E-3	25.2054E-3
669.291E-3	11.3765E-12	668.917E-3	669.291E-3	-154.250E-3	40.0720E-12	-1.03022E+0	24.0808E-3
657.480E-3	11.1774E-12	657.079E-3	657.480E-3	-54.8930E-3	39.9234E-12	-993.849E-3	28.2305E-3
645.669E-3	11.1220E-12	645.270E-3	645.669E-3	108.405E-3	40.0311E-12	-935.150E-3	26.1280E-3
633.858E-3	11.0496E-12	633.466E-3	633.858E-3	29.8827E-3	40.0447E-12	-950.929E-3	23.5029E-3
622.047E-3	10.7101E-12	621.668E-3	622.047E-3	-99.5028E-3	39.9517E-12	-991.774E-3	25.2706E-3
610.236E-3	10.6756E-12	609.895E-3	610.236E-3	30.1549E-3	40.0077E-12	-953.533E-3	27.7091E-3
598.425E-3	10.5897E-12	598.079E-3	598.425E-3	277.365E-3	40.0444E-12	-846.636E-3	25.3838E-3
586.614E-3	10.2758E-12	586.272E-3	586.614E-3	-74.2440E-3	39.9595E-12	-952.771E-3	26.3956E-3
574.803E-3	10.0840E-12	574.460E-3	574.803E-3	130.811E-3	40.0446E-12	-886.085E-3	26.4620E-3
562.992E-3	9.92660E-12	562.675E-3	562.992E-3	-27.8208E-3	40.0256E-12	-909.422E-3	23.1984E-3
551.181E-3	9.84836E-12	550.859E-3	551.181E-3	-58.7083E-3	40.0132E-12	-943.441E-3	25.7933E-3
539.370E-3	9.65367E-12	539.004E-3	539.370E-3	71.6623E-3	40.0016E-12	-915.282E-3	25.1307E-3
527.559E-3	9.60658E-12	527.214E-3	527.559E-3	71.0012E-3	40.0311E-12	-924.083E-3	25.4231E-3
515.748E-3	9.53397E-12	515.387E-3	515.748E-3	-66.1289E-3	40.0033E-12	-941.247E-3	24.7933E-3
503.937E-3	9.29502E-12	503.603E-3	503.937E-3	-142.413E-3	40.0500E-12	-965.817E-3	24.2473E-3
492.126E-3	8.93699E-12	491.774E-3	492.126E-3	-135.004E-3	39.9949E-12	-994.036E-3	25.6977E-3
480.315E-3	8.79065E-12	479.958E-3	480.315E-3	56.3427E-3	40.0024E-12	-923.719E-3	25.5693E-3
468.504E-3	8.73720E-12	468.160E-3	468.504E-3	-88.0437E-3	39.9947E-12	-964.047E-3	26.5203E-3
456.693E-3	8.59865E-12	456.350E-3	456.693E-3	21.9869E-3	40.0904E-12	-928.757E-3	24.5142E-3
444.882E-3	8.36383E-12	444.589E-3	444.882E-3	-57.6107E-3	40.0032E-12	-954.705E-3	25.6420E-3
433.071E-3	8.15172E-12	432.748E-3	433.071E-3	44.7901E-3	40.0067E-12	-943.534E-3	26.4787E-3
421.260E-3	7.96544E-12	420.940E-3	421.260E-3	-30.7411E-3	39.9760E-12	-952.986E-3	26.1914E-3
409.449E-3	7.20180E-12	409.158E-3	409.449E-3	-131.116E-3	39.9226E-12	-1.00358E+0	27.4284E-3
397.638E-3	7.80072E-12	397.310E-3	397.638E-3	118.819E-6	39.9350E-12	-960.855E-3	29.0530E-3
385.827E-3	7.23974E-12	385.559E-3	385.827E-3	142.045E-3	40.0520E-12	-908.782E-3	23.4769E-3
374.016E-3	7.11616E-12	373.718E-3	374.016E-3	-78.8663E-3	40.0437E-12	-965.740E-3	26.1492E-3
362.205E-3	6.89507E-12	361.917E-3	362.205E-3	19.2373E-3	40.0240E-12	-945.160E-3	23.6023E-3
350.394E-3	6.79442E-12	350.168E-3	350.394E-3	-60.6304E-3	40.0062E-12	-970.961E-3	26.2615E-3
338.583E-3	6.61579E-12	338.309E-3	338.583E-3	74.0480E-3	39.9374E-12	-909.756E-3	27.8929E-3
326.772E-3	6.35617E-12	326.528E-3	326.772E-3	-114.099E-3	39.9187E-12	-969.285E-3	27.1995E-3
314.961E-3	6.17635E-12	314.679E-3	314.961E-3	23.4145E-3	39.9913E-12	-938.733E-3	27.2287E-3
303.150E-3	5.93655E-12	302.864E-3	303.150E-3	-110.810E-3	39.9565E-12	-990.148E-3	26.3740E-3
291.339E-3	5.90879E-12	291.110E-3	291.339E-3	50.0955E-3	40.0485E-12	-929.021E-3	24.4417E-3
279.528E-3	5.70686E-12	279.283E-3	279.528E-3	-119.084E-3	39.9531E-12	-969.145E-3	27.0313E-3
267.717E-3	5.59745E-12	267.475E-3	267.717E-3	-43.4038E-3	40.0322E-12	-979.336E-3	25.0742E-3
255.906E-3	5.33986E-12	255.641E-3	255.906E-3	146.071E-3	39.9678E-12	-922.070E-3	27.1942E-3
244.094E-3	5.09351E-12	243.869E-3	244.094E-3	-69.3094E-3	39.9546E-12	-964.981E-3	26.7598E-3
232.283E-3	4.94293E-12	232.019E-3	232.283E-3	-63.9639E-3	40.1005E-12	-986.889E-3	25.7947E-3
220.472E-3	4.71452E-12	220.189E-3	220.472E-3	34.4894E-3	40.0316E-12	-962.703E-3	24.2092E-3
208.661E-3	4.51398E-12	208.406E-3	208.661E-3	-36.2334E-3	39.9901E-12	-1.01178E+0	26.4764E-3
196.850E-3	4.32639E-12	196.574E-3	196.850E-3	200.726E-3	40.0222E-12	-919.845E-3	25.1130E-3
185.039E-3	4.04123E-12	184.805E-3	185.039E-3	120.821E-3	39.9828E-12	-940.202E-3	27.2155E-3
173.228E-3	3.84881E-12	172.995E-3	173.228E-3	-153.356E-3	39.9681E-12	-1.03271E+0	27.5351E-3
161.417E-3	3.57109E-12	161.161E-3	161.417E-3	50.4849E-3	40.0671E-12	-999.740E-3	24.9377E-3
149.606E-3	3.35563E-12	149.336E-3	149.606E-3	-9.80261E-3	40.0065E-12	-1.00761E+0	25.1401E-3
137.795E-3	3.10490E-12	137.540E-3	137.795E-3	-42.3233E-3	39.9761E-12	-1.03515E+0	25.4510E-3
125.984E-3	2.86110E-12	125.783E-3	125.984E-3	101.001E-3	40.0074E-12	-997.408E-3	25.1603E-3
114.173E-3	2.57917E-12	113.953E-3	114.173E-3	-15.6244E-3	40.0027E-12	-1.04219E+0	25.1010E-3
102.362E-3	2.34251E-12	102.145E-3	102.362E-3	75.9757E-3	40.0730E-12	-1.00543E+0	24.6505E-3
90.5512E-3	2.06144E-12	90.3305E-3	90.5512E-3	38.1154E-3	39.9092E-12	-1.01222E+0	28.3887E-3
78.7402E-3	1.77511E-12	78.5039E-3	78.7402E-3	-169.238E-3	39.9753E-12	-1.07328E+0	26.6958E-3
66.9291E-3	1.51485E-12	66.6311E-3	66.9291E-3	-60.7576E-3	40.0277E-12	-1.06400E+0	23.1273E-3
55.1181E-3	1.24328E-12	54.8701E-3	55.1181E-3	103.520E-3	39.8665E-12	-1.02332E+0	32.3642E-3
43.3071E-3	952.879E-15	43.0512E-3	43.3071E-3	-105.329E-3	40.0764E-12	-1.07281E+0	27.0903E-3
31.4961E-3	654.274E-15	31.2221E-3	31.4961E-3	-64.4357E-3	39.9615E-12	-1.09445E+0	27.0308E-3
19.6850E-3	361.458E-15	19.4299E-3	19.6850E-3	58.3108E-3	40.0482E-12	-1.06292E+0	27.2672E-3
7.87402E-3	76.3183E-15	7.56627E-3	7.87402E-3	-85.9501E-3	39.9947E-12	-1.10279E+0	25.5873E-3
-3.93701E-3	-219.590E-15	-4.31800E-3	-3.93701E-3	167.849E-3	39.9992E-12	-1.01707E+0	26.2814E-3
-15.7480E-3	-527.408E-15	-16.1081E-3	-15.7480E-3	-73.9572E-3	40.0206E-12	-1.10657E+0	27.2794E-3
-27.5591E-3	-831.617E-15	-27.9178E-3	-27.5591E-3	-85.2857E-3	39.9609E-12	-1.12544E+0	27.8140E-3
-39.3701E-3	-1.11920E-12	-39.6890E-3	-39.3701E-3	-10.3271E-3	39.9227E-12	-1.09577E+0	27.7916E-3
-51.1811E-3	-1.43800E-12	-51.5431E-3	-51.1811E-3	-46.7493E-3	40.1064E-12	-1.12024E+0	23.3711E-3
-62.9921E-3	-1.71398E-12	-63.3180E-3	-62.9921E-3	-98.3428E-3	39.9918E-12	-1.15606E+0	25.0809E-3
-74.8032E-3	-1.93056E-12	-75.1596E-3	-74.8032E-3	-84.9859E-3	39.9945E-12	-1.17362E+0	26.5200E-3
-86.6142E-3	-2.05991E-12	-87.0163E-3	-86.6142E-3	43.5127E-3	39.9259E-12	-1.12448E+0	29.6480E-3
-98.4252E-3	-2.21648E-12	-98.7905E-3	-98.4252E-3	1.46807E-3	40.0133E-12	-1.17178E+0	25.1625E-3
-110.236E-3	-2.30878E-12	-110.645E-3	-110.236E-3	57.9809E-3	40.0368E-12	-1.11914E+0	25.7559E-3
-122.047E-3	-2.42779E-12	-122.381E-3	-122.047E-3	-106.420E-3	39.8726E-12	-1.18279E+0	30.3213E-3
-133.858E-3	-2.57456E-12	-134.237E-3	-133.858E-3	-123.876E-3	40.0547E-12	-1.20866E+0	26.6151E-3
-145.669E-3	-2.71363E-12	-146.028E-3	-145.669E-3	76.7453E-3	39.9637E-12	-1.16232E+0	25.6067E-3
-157.480E-3	-2.89297E-12	-157.791E-3	-157.480E-3	-23.5886E-3	40.0389E-12	-1.20718E+0	24.8498E-3
-169.291E-3	-3.00830E-12	-169.671E-3	-169.291E-3	38.7626E-3	40.0166E-12	-1.19249E+0	23.4555E-3
-181.102E-3	-3.12372E-12	-181.423E-3	-181.102E-3	45.4558E-3	39.9941E-12	-1.18539E+0	25.3882E-3
-192.913E-3	-3.26663E-12	-193.233E-3	-192.913E-3	-218.674E-3	39.9678E-12	-1.28915E+0	26.7594E-3
-204.724E-3	-3.39428E-12	-205.066E-3	-204.724E-3	-33.3605E-3	39.9676E-12	-1.25413E+0	28.6086E-3
-216.535E-3	-3.57566E-12	-216.855E-3	-216.535E-3	-2.92435E-3	40.0809E-12	-1.25916E+0	24.2179E-3
-228.346E-3	-3.66675E-12	-228.683E-3	-228.346E-3	-46.1259E-3	40.0105E-12	-1.26035E+0	25.1239E-3
-240.157E-3	-3.79066E-12	-240.482E-3	-240.157E-3	-205.671E-3	39.9910E-12	-1.30375E+0	26.2085E-3
-251.969E-3	-3.99050E-12	-252.294E-3	-251.969E-3	98.8154E-3	39.9958E-12	-1.23102E+0	27.9415E-3
-263.780E-3	-4.12332E-12	-264.062E-3	-263.780E-3	38.2629E-3	40.0091E-12	-1.23335E+0	25.9625E-3
-275.591E-3	-4.27060E-12	-275.872E-3	-275.591E-3	-138.562E-3	40.0139E-12	-1.33049E+0	25.8042E-3
-287.402E-3	-4.38866E-12	-287.720E-3	-287.402E-3	-97.7721E-3	39.9838E-12	-1.33222E+0	25.0103E-3
-299.213E-3	-4.63043E-12	-299.509E-3	-299.213E-3	49.7041E-3	40.0426E-12	-1.28781E+0	26.1364E-3
-311.024E-3	-4.63800E-12	-311.334E-3	-311.024E-3	-754.542E-6	39.8968E-12	-1.30371E+0	30.1090E-3
-322.835E-3	-4.83319E-12	-323.118E-3	-322.835E-3	-122.587E-3	40.0513E-12	-1.33757E+0	25.1252E-3
-334.646E-3	-4.92071E-12	-334.895E-3	-334.646E-3	-21.6022E-3	40.0104E-12	-1.34089E+0	30.0211E-3
-346.457E-3	-5.03778E-12	-346.713E-3	-346.457E-3	-107.967E-3	40.0239E-12	-1.37258E+0	26.0880E-3
-358.268E-3	-5.11058E-12	-358.549E-3	-358.268E-3	-39.3576E-3	40.0201E-12	-1.37740E+0	25.8245E-3
-370.079E-3	-5.33478E-12	-370.353E-3	-370.079E-3	59.1554E-3	40.0735E-12	-1.34583E+0	23.4493E-3
-381.890E-3	-5.41452E-12	-382.126E-3	-381.890E-3	3.91063E-3	40.0114E-12	-1.35545E+0	23.4637E-3
-393.701E-3	-5.54307E-12	-393.990E-3	-393.701E-3	-94.3234E-3	40.0140E-12	-1.40586E+0	26.7501E-3
-405.512E-3	-5.60059E-12	-405.796E-3	-405.512E-3	127.042E-3	39.9661E-12	-1.34301E+0	26.2020E-3
-417.323E-3	-5.80993E-12	-417.603E-3	-417.323E-3	-16.7918E-3	39.9944E-12	-1.38893E+0	23.7989E-3
-429.134E-3	-5.87990E-12	-429.414E-3	-429.134E-3	-95.8614E-3	39.8968E-12	-1.43150E+0	28.5306E-3
-440.945E-3	-6.13070E-12	-441.217E-3	-440.945E-3	-88.2405E-3	40.0555E-12	-1.44094E+0	26.7060E-3
-452.756E-3	-6.26328E-12	-453.021E-3	-452.756E-3	-53.0938E-3	40.0165E-12	-1.46009E+0	28.4271E-3
-464.567E-3	-6.56604E-12	-464.848E-3	-464.567E-3	-215.349E-3	39.9846E-12	-1.53537E+0	29.3362E-3
-476.378E-3	-6.76663E-12	-476.681E-3	-476.378E-3	150.187E-3	40.0045E-12	-1.44899E+0	27.4100E-3
-488.189E-3	-7.08195E-12	-488.408E-3	-488.189E-3	-204.624E-3	39.9944E-12	-1.53249E+0	28.6188E-3
-500.000E-3	-7.28948E-12	-500.243E-3	-500.000E-3	-70.1054E-3	40.0271E-12	-1.52588E+0	26.5564E-3
