Experiment	bias spectroscopy	
Date	01.12.2015 06:10:34	
User		
X (m)	281.872E-9	
Y (m)	-138.942E-9	
Z (m)	-4.07703E-9	
Z offset (m)	0E+0	
Settling time (s)	30E-3	
Integration time (s)	200E-3	
Z-Ctrl hold	TRUE	
Final Z (m)	-4.07703E-9	
Filter type	None	
Order		
Cutoff frq		
Current (A)	15.4569E-12	
Z (m)	-4.07703E-9	
Phase (deg)	-161.977E-3	
Amplitude (m)	39.9075E-12	
Frequency Shift (Hz)	-1.10187E+0	
Excitation (V)	29.2517E-3	

[DATA]
Bias calc (V)	Current (A)	Applied Voltage measured (V)	Bias (V)	Phase (deg)	Amplitude (m)	Frequency Shift (Hz)	Excitation (V)
1.00000E+0	14.9713E-12	999.337E-3	1.00000E+0	7.73869E-3	40.0426E-12	-1.07852E+0	23.9151E-3
988.189E-3	14.8111E-12	987.548E-3	988.189E-3	-32.9695E-3	39.9824E-12	-1.11129E+0	25.9250E-3
976.378E-3	14.5405E-12	975.781E-3	976.378E-3	-50.5617E-3	40.0010E-12	-1.12284E+0	24.2611E-3
964.567E-3	14.5952E-12	963.911E-3	964.567E-3	247.470E-3	40.0236E-12	-1.00209E+0	24.9105E-3
952.756E-3	14.2799E-12	952.159E-3	952.756E-3	178.693E-3	39.9479E-12	-1.00226E+0	28.2625E-3
940.945E-3	14.2391E-12	940.325E-3	940.945E-3	-33.7290E-3	40.0311E-12	-1.05271E+0	22.3339E-3
929.134E-3	14.1819E-12	928.500E-3	929.134E-3	-34.3408E-3	39.9918E-12	-1.05331E+0	23.8877E-3
917.323E-3	13.9359E-12	916.749E-3	917.323E-3	19.7181E-3	40.0069E-12	-1.02537E+0	25.1784E-3
905.512E-3	13.8855E-12	904.885E-3	905.512E-3	83.4334E-3	40.0097E-12	-1.01177E+0	25.3844E-3
893.701E-3	13.6342E-12	893.134E-3	893.701E-3	81.8784E-3	39.9456E-12	-1.00298E+0	25.1375E-3
881.890E-3	13.5707E-12	881.290E-3	881.890E-3	-76.4714E-3	40.0568E-12	-1.04035E+0	26.7686E-3
870.079E-3	13.3644E-12	869.476E-3	870.079E-3	49.8578E-3	40.0388E-12	-987.834E-3	23.3576E-3
858.268E-3	13.5094E-12	857.658E-3	858.268E-3	127.519E-3	39.9519E-12	-955.064E-3	27.2219E-3
846.457E-3	13.3035E-12	845.828E-3	846.457E-3	-24.3481E-3	40.0450E-12	-1.01101E+0	23.9187E-3
834.646E-3	13.1046E-12	834.056E-3	834.646E-3	-43.4358E-3	39.9629E-12	-1.01734E+0	26.2186E-3
822.835E-3	13.0402E-12	822.240E-3	822.835E-3	-24.1338E-3	40.0386E-12	-999.866E-3	26.4222E-3
811.024E-3	12.8519E-12	810.423E-3	811.024E-3	-104.755E-3	39.9499E-12	-1.02468E+0	28.6351E-3
799.213E-3	12.7352E-12	798.649E-3	799.213E-3	60.4440E-3	39.9933E-12	-972.073E-3	25.9849E-3
787.402E-3	12.5337E-12	786.815E-3	787.402E-3	181.359E-3	40.0757E-12	-919.991E-3	24.1908E-3
775.591E-3	12.4759E-12	775.029E-3	775.591E-3	-56.4448E-3	40.0307E-12	-968.055E-3	21.3505E-3
763.780E-3	12.1827E-12	763.207E-3	763.780E-3	55.4290E-3	39.9464E-12	-959.626E-3	24.2669E-3
751.969E-3	12.0178E-12	751.433E-3	751.969E-3	-75.6558E-3	39.9602E-12	-1.01357E+0	28.5075E-3
740.157E-3	12.0316E-12	739.640E-3	740.157E-3	189.565E-3	40.0716E-12	-921.023E-3	23.3032E-3
728.346E-3	11.8574E-12	727.797E-3	728.346E-3	15.9054E-3	40.0800E-12	-944.523E-3	24.9741E-3
716.535E-3	11.7742E-12	716.006E-3	716.535E-3	-113.300E-3	39.9356E-12	-974.374E-3	25.0520E-3
704.724E-3	11.5613E-12	704.311E-3	704.724E-3	-27.8420E-3	40.0299E-12	-958.555E-3	26.8244E-3
692.913E-3	11.4765E-12	692.518E-3	692.913E-3	-1.19075E-3	40.0213E-12	-963.262E-3	23.4027E-3
681.102E-3	11.1191E-12	680.741E-3	681.102E-3	27.3820E-3	40.0083E-12	-949.911E-3	23.7289E-3
669.291E-3	11.1358E-12	668.925E-3	669.291E-3	-73.4656E-3	39.9824E-12	-996.179E-3	24.7956E-3
657.480E-3	10.9286E-12	657.094E-3	657.480E-3	106.785E-3	40.0236E-12	-906.234E-3	24.1035E-3
645.669E-3	10.7646E-12	645.282E-3	645.669E-3	150.919E-3	39.8985E-12	-876.081E-3	29.6772E-3
633.858E-3	10.5808E-12	633.475E-3	633.858E-3	-117.399E-3	40.0361E-12	-949.166E-3	26.3349E-3
622.047E-3	10.4749E-12	621.674E-3	622.047E-3	2.28357E-3	40.0814E-12	-950.390E-3	22.0604E-3
610.236E-3	10.1638E-12	609.906E-3	610.236E-3	38.6038E-3	39.8974E-12	-920.208E-3	27.8976E-3
598.425E-3	10.1693E-12	598.101E-3	598.425E-3	21.6776E-3	40.0105E-12	-915.209E-3	27.8188E-3
586.614E-3	9.97868E-12	586.295E-3	586.614E-3	-29.3890E-3	39.9054E-12	-935.678E-3	28.4052E-3
574.803E-3	9.84223E-12	574.478E-3	574.803E-3	-121.442E-3	40.0927E-12	-985.567E-3	24.7126E-3
562.992E-3	9.60343E-12	562.692E-3	562.992E-3	57.7890E-3	39.9688E-12	-912.060E-3	25.9478E-3
551.181E-3	9.44710E-12	550.882E-3	551.181E-3	-19.4761E-3	39.9514E-12	-936.217E-3	28.1965E-3
539.370E-3	9.49378E-12	539.011E-3	539.370E-3	-82.2944E-3	39.9820E-12	-949.060E-3	28.1610E-3
527.559E-3	9.21364E-12	527.233E-3	527.559E-3	-120.255E-3	40.0293E-12	-980.473E-3	25.5435E-3
515.748E-3	9.15639E-12	515.394E-3	515.748E-3	14.4847E-3	40.0350E-12	-948.868E-3	24.0928E-3
503.937E-3	8.79471E-12	503.612E-3	503.937E-3	90.8499E-3	40.0223E-12	-923.438E-3	24.2246E-3
492.126E-3	8.67616E-12	491.780E-3	492.126E-3	89.5400E-3	39.9916E-12	-893.889E-3	24.3084E-3
480.315E-3	8.37732E-12	479.975E-3	480.315E-3	-201.698E-3	39.9222E-12	-996.274E-3	29.3248E-3
468.504E-3	8.23708E-12	468.181E-3	468.504E-3	13.1955E-3	40.0293E-12	-951.471E-3	22.8709E-3
456.693E-3	8.17893E-12	456.369E-3	456.693E-3	49.3339E-3	39.9560E-12	-936.320E-3	24.1996E-3
444.882E-3	7.90263E-12	444.595E-3	444.882E-3	-106.928E-3	39.8943E-12	-991.450E-3	31.3498E-3
433.071E-3	7.75132E-12	432.762E-3	433.071E-3	109.889E-3	40.0177E-12	-905.920E-3	26.6976E-3
421.260E-3	7.54654E-12	420.952E-3	421.260E-3	161.061E-3	40.0310E-12	-880.626E-3	25.0636E-3
409.449E-3	7.30616E-12	409.173E-3	409.449E-3	11.9056E-3	39.9626E-12	-920.133E-3	25.2644E-3
397.638E-3	7.14129E-12	397.326E-3	397.638E-3	-108.202E-3	40.0425E-12	-970.120E-3	28.3727E-3
385.827E-3	7.01491E-12	385.576E-3	385.827E-3	-91.0648E-3	39.9978E-12	-973.542E-3	27.6010E-3
374.016E-3	6.88272E-12	373.724E-3	374.016E-3	-5.14857E-3	40.0031E-12	-973.304E-3	26.5959E-3
362.205E-3	6.65944E-12	361.922E-3	362.205E-3	197.445E-3	40.0304E-12	-900.826E-3	25.4761E-3
350.394E-3	6.34802E-12	350.180E-3	350.394E-3	-43.2047E-3	39.9502E-12	-970.754E-3	27.0818E-3
338.583E-3	6.33187E-12	338.326E-3	338.583E-3	-88.8665E-3	40.0836E-12	-974.976E-3	25.0504E-3
326.772E-3	6.10923E-12	326.534E-3	326.772E-3	-46.8154E-3	40.0204E-12	-967.143E-3	23.8568E-3
314.961E-3	5.93785E-12	314.702E-3	314.961E-3	74.6661E-3	39.9999E-12	-939.479E-3	24.9929E-3
303.150E-3	5.78470E-12	302.873E-3	303.150E-3	-97.5412E-3	39.9593E-12	-996.825E-3	24.2542E-3
291.339E-3	5.63862E-12	291.124E-3	291.339E-3	81.0398E-3	40.0425E-12	-946.091E-3	23.0400E-3
279.528E-3	5.40428E-12	279.292E-3	279.528E-3	28.5756E-3	39.9852E-12	-932.872E-3	25.9601E-3
267.717E-3	5.14700E-12	267.480E-3	267.717E-3	-3.36014E-3	39.9066E-12	-963.290E-3	27.6057E-3
255.906E-3	5.03127E-12	255.655E-3	255.906E-3	-35.8283E-3	40.0500E-12	-997.437E-3	25.8118E-3
244.094E-3	4.91686E-12	243.876E-3	244.094E-3	68.7961E-3	39.9859E-12	-979.073E-3	26.4197E-3
232.283E-3	4.65381E-12	232.027E-3	232.283E-3	16.2275E-3	39.9863E-12	-968.750E-3	26.6572E-3
220.472E-3	4.51359E-12	220.197E-3	220.472E-3	-206.858E-3	40.0746E-12	-1.06248E+0	22.8423E-3
208.661E-3	4.24742E-12	208.418E-3	208.661E-3	-24.2474E-3	40.0489E-12	-1.02868E+0	24.1070E-3
196.850E-3	4.04573E-12	196.586E-3	196.850E-3	64.2323E-3	39.9823E-12	-985.200E-3	24.7126E-3
185.039E-3	3.81432E-12	184.813E-3	185.039E-3	-51.6675E-3	39.9487E-12	-1.02786E+0	29.3723E-3
173.228E-3	3.64627E-12	172.996E-3	173.228E-3	85.3290E-3	40.0586E-12	-1.00742E+0	25.6639E-3
161.417E-3	3.42950E-12	161.167E-3	161.417E-3	1.39870E-3	39.9951E-12	-1.00520E+0	28.1491E-3
149.606E-3	3.23316E-12	149.348E-3	149.606E-3	163.670E-3	40.0348E-12	-968.908E-3	24.4266E-3
137.795E-3	3.03359E-12	137.560E-3	137.795E-3	-82.8867E-3	40.0085E-12	-1.03274E+0	29.6560E-3
125.984E-3	2.73776E-12	125.784E-3	125.984E-3	-57.3509E-3	39.9639E-12	-1.04827E+0	27.4722E-3
114.173E-3	2.56135E-12	113.952E-3	114.173E-3	-76.3875E-3	39.9538E-12	-1.05013E+0	25.0618E-3
102.362E-3	2.33423E-12	102.146E-3	102.362E-3	125.053E-3	39.9691E-12	-982.474E-3	25.7504E-3
90.5512E-3	2.06477E-12	90.3435E-3	90.5512E-3	-35.1298E-3	40.0934E-12	-1.03213E+0	21.6337E-3
78.7402E-3	1.80413E-12	78.5081E-3	78.7402E-3	-47.3516E-3	39.9511E-12	-1.04672E+0	26.0254E-3
66.9291E-3	1.54674E-12	66.6380E-3	66.9291E-3	-3.78908E-3	40.0010E-12	-1.03463E+0	26.2847E-3
55.1181E-3	1.28628E-12	54.8560E-3	55.1181E-3	-18.1035E-3	39.9927E-12	-1.05055E+0	30.7949E-3
43.3071E-3	987.940E-15	43.0429E-3	43.3071E-3	-252.505E-6	40.0101E-12	-1.06861E+0	26.2664E-3
31.4961E-3	709.796E-15	31.2090E-3	31.4961E-3	-76.5173E-3	39.9904E-12	-1.10505E+0	25.4099E-3
19.6850E-3	427.327E-15	19.4126E-3	19.6850E-3	118.435E-3	40.0393E-12	-1.01565E+0	21.8491E-3
7.87402E-3	103.368E-15	7.56582E-3	7.87402E-3	-121.579E-3	40.0011E-12	-1.10187E+0	25.5137E-3
-3.93701E-3	-215.927E-15	-4.32175E-3	-3.93701E-3	40.7932E-3	39.9849E-12	-1.05082E+0	24.1537E-3
-15.7480E-3	-557.321E-15	-16.1031E-3	-15.7480E-3	-27.4203E-3	40.0419E-12	-1.06612E+0	25.2390E-3
-27.5591E-3	-877.832E-15	-27.9149E-3	-27.5591E-3	58.0578E-3	40.0010E-12	-1.06214E+0	29.2227E-3
-39.3701E-3	-1.17007E-12	-39.6917E-3	-39.3701E-3	-103.347E-3	39.9339E-12	-1.10574E+0	29.3287E-3
-51.1811E-3	-1.46077E-12	-51.5489E-3	-51.1811E-3	-92.3515E-3	40.0634E-12	-1.14304E+0	27.4008E-3
-62.9921E-3	-1.73179E-12	-63.3101E-3	-62.9921E-3	3.67973E-3	39.8797E-12	-1.12270E+0	29.9001E-3
-74.8032E-3	-1.86741E-12	-75.1538E-3	-74.8032E-3	47.1350E-3	40.0963E-12	-1.10398E+0	24.1691E-3
-86.6142E-3	-1.84592E-12	-87.0109E-3	-86.6142E-3	-55.1652E-3	40.0319E-12	-1.16230E+0	23.5798E-3
-98.4252E-3	-1.95209E-12	-98.7871E-3	-98.4252E-3	55.0683E-3	39.9961E-12	-1.13733E+0	25.1296E-3
-110.236E-3	-2.11046E-12	-110.634E-3	-110.236E-3	11.2981E-3	39.9543E-12	-1.13752E+0	27.2854E-3
-122.047E-3	-2.24478E-12	-122.385E-3	-122.047E-3	35.4416E-3	39.8606E-12	-1.15173E+0	29.8678E-3
-133.858E-3	-2.42441E-12	-134.234E-3	-133.858E-3	-156.187E-3	40.0822E-12	-1.21452E+0	23.9087E-3
-145.669E-3	-2.24183E-12	-146.034E-3	-145.669E-3	-36.6930E-3	40.0502E-12	-1.20862E+0	25.4674E-3
-157.480E-3	-2.31694E-12	-157.806E-3	-157.480E-3	-153.054E-3	40.0279E-12	-1.24971E+0	25.8028E-3
-169.291E-3	-2.81400E-12	-169.678E-3	-169.291E-3	-55.9393E-3	39.9926E-12	-1.21361E+0	25.6207E-3
-181.102E-3	-2.99115E-12	-181.413E-3	-181.102E-3	80.9163E-3	39.9966E-12	-1.18885E+0	24.4601E-3
-192.913E-3	-3.13621E-12	-193.225E-3	-192.913E-3	10.4385E-3	40.0570E-12	-1.18962E+0	21.8986E-3
-204.724E-3	-3.24862E-12	-205.059E-3	-204.724E-3	67.8820E-3	39.9362E-12	-1.17266E+0	28.1364E-3
-216.535E-3	-3.39550E-12	-216.857E-3	-216.535E-3	2.75234E-3	40.0516E-12	-1.21954E+0	25.2677E-3
-228.346E-3	-3.59638E-12	-228.682E-3	-228.346E-3	31.8715E-3	40.0020E-12	-1.18388E+0	26.0119E-3
-240.157E-3	-3.79904E-12	-240.486E-3	-240.157E-3	-110.731E-3	39.9920E-12	-1.25599E+0	24.4104E-3
-251.969E-3	-3.88795E-12	-252.307E-3	-251.969E-3	-171.034E-3	39.9563E-12	-1.30839E+0	28.6345E-3
-263.780E-3	-4.07299E-12	-264.066E-3	-263.780E-3	188.203E-3	40.0450E-12	-1.21797E+0	25.8201E-3
-275.591E-3	-4.23819E-12	-275.873E-3	-275.591E-3	66.9039E-3	40.0021E-12	-1.24848E+0	26.7267E-3
-287.402E-3	-4.41550E-12	-287.721E-3	-287.402E-3	-278.094E-3	39.9752E-12	-1.36273E+0	29.2419E-3
-299.213E-3	-4.50092E-12	-299.501E-3	-299.213E-3	-16.6614E-3	40.0298E-12	-1.32146E+0	27.6344E-3
-311.024E-3	-4.58086E-12	-311.335E-3	-311.024E-3	82.8242E-3	40.0107E-12	-1.30642E+0	25.1606E-3
-322.835E-3	-4.74453E-12	-323.127E-3	-322.835E-3	-14.5156E-3	39.9701E-12	-1.33241E+0	26.1000E-3
-334.646E-3	-4.83227E-12	-334.898E-3	-334.646E-3	-117.267E-3	39.9401E-12	-1.36332E+0	28.6392E-3
-346.457E-3	-5.00427E-12	-346.716E-3	-346.457E-3	10.3766E-3	40.0555E-12	-1.34128E+0	26.3150E-3
-358.268E-3	-5.10544E-12	-358.556E-3	-358.268E-3	5.89330E-3	39.9582E-12	-1.36281E+0	25.8838E-3
-370.079E-3	-5.23157E-12	-370.363E-3	-370.079E-3	-112.630E-3	40.0219E-12	-1.40868E+0	25.1211E-3
-381.890E-3	-5.35410E-12	-382.132E-3	-381.890E-3	2.85190E-3	39.9846E-12	-1.38360E+0	27.4597E-3
-393.701E-3	-5.54568E-12	-394.006E-3	-393.701E-3	125.767E-3	40.0945E-12	-1.34515E+0	22.5136E-3
-405.512E-3	-5.58693E-12	-405.823E-3	-405.512E-3	-227.250E-3	39.9439E-12	-1.45963E+0	25.5379E-3
-417.323E-3	-5.70602E-12	-417.619E-3	-417.323E-3	56.4538E-3	39.9950E-12	-1.40603E+0	27.0721E-3
-429.134E-3	-5.87751E-12	-429.412E-3	-429.134E-3	-56.2154E-3	39.9699E-12	-1.44131E+0	27.2181E-3
-440.945E-3	-6.08076E-12	-441.213E-3	-440.945E-3	-161.009E-3	39.9718E-12	-1.50956E+0	29.1866E-3
-452.756E-3	-6.23006E-12	-453.019E-3	-452.756E-3	140.932E-3	40.0510E-12	-1.44171E+0	26.1703E-3
-464.567E-3	-6.42488E-12	-464.842E-3	-464.567E-3	95.8420E-3	40.0038E-12	-1.43987E+0	25.1948E-3
-476.378E-3	-6.66746E-12	-476.671E-3	-476.378E-3	-118.475E-3	39.9665E-12	-1.52410E+0	28.5871E-3
-488.189E-3	-6.91998E-12	-488.399E-3	-488.189E-3	50.9308E-3	39.9681E-12	-1.49771E+0	27.1200E-3
-500.000E-3	-7.29819E-12	-500.243E-3	-500.000E-3	-58.2669E-3	40.0457E-12	-1.53165E+0	24.4985E-3
