Experiment	bias spectroscopy	
Date	30.11.2015 22:32:01	
User		
X (m)	29.4563E-9	
Y (m)	-165.632E-9	
Z (m)	-3.75578E-9	
Z offset (m)	0E+0	
Settling time (s)	30E-3	
Integration time (s)	200E-3	
Z-Ctrl hold	TRUE	
Final Z (m)	-3.75578E-9	
Filter type	None	
Order		
Cutoff frq		
Current (A)	62.3261E-12	
Z (m)	-3.75578E-9	
Phase (deg)	1.04201E+0	
Amplitude (m)	39.7645E-12	
Frequency Shift (Hz)	-533.502E-3	
Excitation (V)	27.8536E-3	

[DATA]
Bias calc (V)	Current (A)	Applied Voltage measured (V)	Bias (V)	Phase (deg)	Amplitude (m)	Frequency Shift (Hz)	Excitation (V)
1.00000E+0	62.0699E-12	999.328E-3	1.00000E+0	83.8497E-3	39.9786E-12	-760.670E-3	23.2648E-3
988.189E-3	61.3442E-12	987.532E-3	988.189E-3	78.2593E-3	39.9426E-12	-758.744E-3	26.6282E-3
976.378E-3	61.6086E-12	975.764E-3	976.378E-3	-83.6004E-3	40.1479E-12	-809.664E-3	21.1644E-3
964.567E-3	60.1872E-12	963.902E-3	964.567E-3	-116.804E-3	39.9916E-12	-852.496E-3	22.9061E-3
952.756E-3	59.3971E-12	952.151E-3	952.756E-3	160.455E-3	39.9942E-12	-780.196E-3	23.3588E-3
940.945E-3	58.6417E-12	940.313E-3	940.945E-3	49.6906E-3	39.9741E-12	-781.164E-3	20.5329E-3
929.134E-3	58.0361E-12	928.488E-3	929.134E-3	147.546E-3	40.0298E-12	-722.507E-3	24.4754E-3
917.323E-3	56.8094E-12	916.743E-3	917.323E-3	-157.996E-3	39.9503E-12	-831.184E-3	24.9011E-3
905.512E-3	56.3470E-12	904.884E-3	905.512E-3	-51.6052E-3	39.9604E-12	-811.226E-3	24.8707E-3
893.701E-3	55.6571E-12	893.127E-3	893.701E-3	76.5843E-3	40.0723E-12	-771.505E-3	25.2696E-3
881.890E-3	54.9622E-12	881.292E-3	881.890E-3	48.0161E-3	39.9789E-12	-759.663E-3	23.5950E-3
870.079E-3	53.9501E-12	869.490E-3	870.079E-3	167.618E-3	40.0190E-12	-711.366E-3	26.3602E-3
858.268E-3	53.6942E-12	857.666E-3	858.268E-3	61.7409E-3	40.0619E-12	-702.352E-3	24.3236E-3
846.457E-3	52.6042E-12	845.828E-3	846.457E-3	90.4858E-3	39.9567E-12	-687.830E-3	26.7879E-3
834.646E-3	52.0749E-12	834.051E-3	834.646E-3	-7.87120E-3	40.0482E-12	-707.525E-3	24.7059E-3
822.835E-3	51.3776E-12	822.242E-3	822.835E-3	82.7346E-3	39.9576E-12	-682.442E-3	26.5641E-3
811.024E-3	50.7128E-12	810.415E-3	811.024E-3	-35.9330E-3	39.9119E-12	-739.166E-3	28.2312E-3
799.213E-3	49.8128E-12	798.640E-3	799.213E-3	58.3119E-3	40.0117E-12	-712.549E-3	24.8059E-3
787.402E-3	48.9926E-12	786.809E-3	787.402E-3	91.3890E-3	39.9401E-12	-684.950E-3	27.1669E-3
775.591E-3	48.2633E-12	775.020E-3	775.591E-3	-93.8631E-3	40.0543E-12	-766.590E-3	25.6607E-3
763.780E-3	47.2286E-12	763.193E-3	763.780E-3	244.463E-3	39.8593E-12	-643.320E-3	27.9077E-3
751.969E-3	46.8068E-12	751.411E-3	751.969E-3	-51.7197E-3	40.0242E-12	-721.537E-3	28.6769E-3
740.157E-3	46.0388E-12	739.605E-3	740.157E-3	-109.414E-3	40.0675E-12	-770.449E-3	23.1512E-3
728.346E-3	45.1782E-12	727.776E-3	728.346E-3	21.5669E-3	39.9658E-12	-697.355E-3	28.0291E-3
716.535E-3	44.7523E-12	715.987E-3	716.535E-3	-50.0509E-3	40.0717E-12	-710.875E-3	24.6801E-3
704.724E-3	43.2627E-12	704.306E-3	704.724E-3	-100.999E-3	40.0379E-12	-743.820E-3	24.1381E-3
692.913E-3	42.7068E-12	692.503E-3	692.913E-3	-18.3231E-3	40.0052E-12	-719.679E-3	24.6805E-3
681.102E-3	42.0966E-12	680.737E-3	681.102E-3	163.923E-3	39.9447E-12	-669.629E-3	27.1243E-3
669.291E-3	41.3869E-12	668.913E-3	669.291E-3	-108.597E-3	40.0251E-12	-750.612E-3	24.8655E-3
657.480E-3	40.4816E-12	657.067E-3	657.480E-3	-223.789E-3	39.9659E-12	-806.426E-3	27.0305E-3
645.669E-3	39.8125E-12	645.263E-3	645.669E-3	94.6347E-3	40.0439E-12	-712.099E-3	23.5491E-3
633.858E-3	39.3438E-12	633.461E-3	633.858E-3	37.7652E-3	40.0476E-12	-708.902E-3	25.2464E-3
622.047E-3	38.2546E-12	621.655E-3	622.047E-3	100.536E-3	39.9537E-12	-684.889E-3	25.6793E-3
610.236E-3	37.4766E-12	609.888E-3	610.236E-3	-159.940E-3	40.0296E-12	-761.506E-3	23.5756E-3
598.425E-3	36.6070E-12	598.093E-3	598.425E-3	152.414E-3	39.9885E-12	-666.001E-3	25.2406E-3
586.614E-3	35.9258E-12	586.283E-3	586.614E-3	-156.888E-3	39.9952E-12	-736.414E-3	28.0468E-3
574.803E-3	34.8877E-12	574.465E-3	574.803E-3	25.0317E-3	39.9964E-12	-693.696E-3	27.5238E-3
562.992E-3	34.2093E-12	562.684E-3	562.992E-3	-27.4630E-3	40.0589E-12	-727.486E-3	26.2014E-3
551.181E-3	33.5255E-12	550.869E-3	551.181E-3	76.5924E-3	40.0129E-12	-706.144E-3	25.5711E-3
539.370E-3	32.5947E-12	539.006E-3	539.370E-3	-133.983E-3	40.0119E-12	-757.708E-3	24.6377E-3
527.559E-3	31.8275E-12	527.220E-3	527.559E-3	-71.5108E-3	39.9902E-12	-750.638E-3	25.9061E-3
515.748E-3	30.9421E-12	515.388E-3	515.748E-3	161.521E-3	39.8829E-12	-688.046E-3	26.5620E-3
503.937E-3	30.2596E-12	503.598E-3	503.937E-3	-55.3007E-3	40.0703E-12	-756.966E-3	23.7518E-3
492.126E-3	29.4889E-12	491.777E-3	492.126E-3	78.0792E-3	39.9650E-12	-667.371E-3	23.8885E-3
480.315E-3	28.9820E-12	479.968E-3	480.315E-3	-106.513E-3	40.0125E-12	-748.150E-3	26.0151E-3
468.504E-3	27.6868E-12	468.167E-3	468.504E-3	-37.1646E-3	39.9303E-12	-746.167E-3	28.4877E-3
456.693E-3	27.5445E-12	456.359E-3	456.693E-3	42.6825E-3	40.0339E-12	-709.035E-3	27.6053E-3
444.882E-3	26.6998E-12	444.589E-3	444.882E-3	-12.5198E-3	40.0659E-12	-760.110E-3	21.8589E-3
433.071E-3	25.7554E-12	432.752E-3	433.071E-3	30.0967E-3	39.9746E-12	-751.878E-3	24.2654E-3
421.260E-3	25.2122E-12	420.942E-3	421.260E-3	-12.8632E-3	40.0322E-12	-759.394E-3	27.3150E-3
409.449E-3	24.2523E-12	409.167E-3	409.449E-3	-22.1575E-3	39.9842E-12	-767.913E-3	22.8120E-3
397.638E-3	23.5723E-12	397.315E-3	397.638E-3	-162.063E-3	40.0198E-12	-810.696E-3	26.3764E-3
385.827E-3	22.8851E-12	385.556E-3	385.827E-3	137.409E-3	39.9741E-12	-707.160E-3	26.5437E-3
374.016E-3	22.2119E-12	373.709E-3	374.016E-3	9.14482E-3	39.9940E-12	-729.338E-3	23.0193E-3
362.205E-3	21.4280E-12	361.911E-3	362.205E-3	-47.6409E-3	40.0326E-12	-741.976E-3	26.4931E-3
350.394E-3	20.6688E-12	350.161E-3	350.394E-3	-82.3267E-3	40.0503E-12	-800.614E-3	25.6406E-3
338.583E-3	19.9690E-12	338.297E-3	338.583E-3	-32.7163E-3	40.0061E-12	-775.573E-3	26.1855E-3
326.772E-3	19.0771E-12	326.505E-3	326.772E-3	113.810E-3	40.0041E-12	-712.564E-3	26.7025E-3
314.961E-3	18.3438E-12	314.672E-3	314.961E-3	-172.355E-3	39.9902E-12	-812.130E-3	25.3668E-3
303.150E-3	17.6569E-12	302.851E-3	303.150E-3	4.85276E-3	40.0634E-12	-765.246E-3	23.8651E-3
291.339E-3	16.9478E-12	291.095E-3	291.339E-3	72.5799E-3	40.0033E-12	-745.690E-3	25.4363E-3
279.528E-3	16.2841E-12	279.270E-3	279.528E-3	-139.179E-3	40.0833E-12	-829.762E-3	26.5812E-3
267.717E-3	15.4452E-12	267.461E-3	267.717E-3	114.054E-3	39.9039E-12	-739.277E-3	26.6107E-3
255.906E-3	14.6229E-12	255.637E-3	255.906E-3	-106.043E-3	39.9848E-12	-813.488E-3	26.5345E-3
244.094E-3	14.0148E-12	243.870E-3	244.094E-3	-176.696E-3	40.0247E-12	-857.503E-3	25.0866E-3
232.283E-3	13.2612E-12	232.016E-3	232.283E-3	-12.7038E-3	39.9880E-12	-828.977E-3	25.1911E-3
220.472E-3	12.4805E-12	220.183E-3	220.472E-3	24.2148E-3	39.9467E-12	-807.972E-3	25.6359E-3
208.661E-3	11.7662E-12	208.411E-3	208.661E-3	44.0164E-3	40.0799E-12	-807.796E-3	25.2381E-3
196.850E-3	11.1212E-12	196.570E-3	196.850E-3	-12.2853E-3	39.9748E-12	-812.817E-3	26.1087E-3
185.039E-3	10.3390E-12	184.800E-3	185.039E-3	9.40805E-3	40.0082E-12	-823.163E-3	26.9457E-3
173.228E-3	9.65261E-12	172.989E-3	173.228E-3	-84.6651E-3	39.9875E-12	-861.326E-3	27.9913E-3
161.417E-3	8.89365E-12	161.153E-3	161.417E-3	-10.2463E-3	40.0077E-12	-839.347E-3	28.1615E-3
149.606E-3	8.14362E-12	149.328E-3	149.606E-3	-15.2760E-3	40.0550E-12	-848.927E-3	24.7669E-3
137.795E-3	7.40182E-12	137.535E-3	137.795E-3	4.89616E-3	39.9382E-12	-845.814E-3	28.4802E-3
125.984E-3	6.68639E-12	125.766E-3	125.984E-3	5.96574E-3	39.9998E-12	-849.446E-3	26.3903E-3
114.173E-3	6.02184E-12	113.931E-3	114.173E-3	117.929E-3	40.0026E-12	-810.216E-3	24.4482E-3
102.362E-3	5.32775E-12	102.122E-3	102.362E-3	-240.308E-3	39.9622E-12	-940.857E-3	28.8575E-3
90.5512E-3	4.71904E-12	90.3193E-3	90.5512E-3	22.3797E-3	40.0768E-12	-881.134E-3	26.3180E-3
78.7402E-3	3.99126E-12	78.4791E-3	78.7402E-3	57.4820E-3	39.9915E-12	-859.814E-3	27.5035E-3
66.9291E-3	3.33665E-12	66.6101E-3	66.9291E-3	-87.7059E-3	40.0190E-12	-911.156E-3	25.0027E-3
55.1181E-3	2.68125E-12	54.8391E-3	55.1181E-3	-88.6802E-3	39.9799E-12	-935.582E-3	26.9835E-3
43.3071E-3	2.04203E-12	43.0218E-3	43.3071E-3	125.359E-3	40.0066E-12	-839.894E-3	26.9768E-3
31.4961E-3	1.41734E-12	31.1883E-3	31.4961E-3	7.97271E-3	39.9761E-12	-889.011E-3	26.5767E-3
19.6850E-3	835.825E-15	19.3986E-3	19.6850E-3	-70.0141E-3	40.0240E-12	-925.987E-3	25.3620E-3
7.87402E-3	274.445E-15	7.54642E-3	7.87402E-3	-53.7902E-3	39.9370E-12	-945.391E-3	28.8391E-3
-3.93701E-3	-268.955E-15	-4.33797E-3	-3.93701E-3	112.330E-3	40.0155E-12	-896.432E-3	26.6346E-3
-15.7480E-3	-791.977E-15	-16.1285E-3	-15.7480E-3	-94.2978E-3	39.9295E-12	-960.616E-3	28.2781E-3
-27.5591E-3	-1.35626E-12	-27.9345E-3	-27.5591E-3	-41.2546E-3	40.0563E-12	-951.255E-3	23.2743E-3
-39.3701E-3	-1.93047E-12	-39.7022E-3	-39.3701E-3	-14.3104E-3	40.0628E-12	-951.582E-3	23.3310E-3
-51.1811E-3	-2.45011E-12	-51.5616E-3	-51.1811E-3	-132.110E-3	39.9820E-12	-1.00374E+0	26.6006E-3
-62.9921E-3	-3.00155E-12	-63.3254E-3	-62.9921E-3	50.3637E-3	40.0043E-12	-940.130E-3	26.9605E-3
-74.8032E-3	-3.38805E-12	-75.1598E-3	-74.8032E-3	38.4648E-3	39.9975E-12	-930.745E-3	25.8130E-3
-86.6142E-3	-3.72019E-12	-87.0217E-3	-86.6142E-3	-3.62838E-3	40.0619E-12	-951.830E-3	25.3406E-3
-98.4252E-3	-4.04893E-12	-98.7948E-3	-98.4252E-3	-104.986E-3	40.0155E-12	-1.00348E+0	25.6116E-3
-110.236E-3	-4.31471E-12	-110.655E-3	-110.236E-3	-20.1581E-3	40.0022E-12	-1.01486E+0	26.0480E-3
-122.047E-3	-4.62421E-12	-122.395E-3	-122.047E-3	98.4839E-3	39.9705E-12	-957.031E-3	27.2856E-3
-133.858E-3	-4.91355E-12	-134.257E-3	-133.858E-3	-116.351E-3	40.0108E-12	-1.03358E+0	26.6320E-3
-145.669E-3	-5.17546E-12	-146.048E-3	-145.669E-3	-26.0310E-3	40.0673E-12	-1.02035E+0	25.6525E-3
-157.480E-3	-5.44509E-12	-157.826E-3	-157.480E-3	-112.451E-3	40.0171E-12	-1.04269E+0	27.4568E-3
-169.291E-3	-5.64241E-12	-169.696E-3	-169.291E-3	-169.512E-3	39.9700E-12	-1.11339E+0	27.6844E-3
-181.102E-3	-5.93045E-12	-181.436E-3	-181.102E-3	31.0085E-3	40.0517E-12	-1.01555E+0	25.5953E-3
-192.913E-3	-6.19312E-12	-193.249E-3	-192.913E-3	-263.472E-3	40.0188E-12	-1.13428E+0	26.2604E-3
-204.724E-3	-6.46529E-12	-205.073E-3	-204.724E-3	55.6584E-3	39.9717E-12	-1.05905E+0	30.3242E-3
-216.535E-3	-6.77459E-12	-216.879E-3	-216.535E-3	49.4663E-3	40.0653E-12	-1.06713E+0	26.0401E-3
-228.346E-3	-7.05141E-12	-228.689E-3	-228.346E-3	-45.6062E-3	40.0359E-12	-1.07400E+0	25.7895E-3
-240.157E-3	-7.34284E-12	-240.486E-3	-240.157E-3	-80.7386E-3	40.0165E-12	-1.11398E+0	26.7876E-3
-251.969E-3	-7.58538E-12	-252.317E-3	-251.969E-3	48.4756E-3	39.9208E-12	-1.09288E+0	29.1865E-3
-263.780E-3	-7.84742E-12	-264.079E-3	-263.780E-3	-8.94877E-3	39.9925E-12	-1.09900E+0	28.8301E-3
-275.591E-3	-8.19316E-12	-275.889E-3	-275.591E-3	-146.341E-3	40.0364E-12	-1.14083E+0	27.5768E-3
-287.402E-3	-8.37645E-12	-287.739E-3	-287.402E-3	-122.503E-3	39.9965E-12	-1.17045E+0	28.2102E-3
-299.213E-3	-8.68514E-12	-299.524E-3	-299.213E-3	-143.740E-3	39.9710E-12	-1.21802E+0	28.2141E-3
-311.024E-3	-9.05655E-12	-311.350E-3	-311.024E-3	3.10059E-3	40.0345E-12	-1.18804E+0	25.9227E-3
-322.835E-3	-9.26145E-12	-323.146E-3	-322.835E-3	117.550E-3	39.9702E-12	-1.14003E+0	30.7403E-3
-334.646E-3	-9.56278E-12	-334.924E-3	-334.646E-3	68.9463E-3	40.0414E-12	-1.14806E+0	29.3044E-3
-346.457E-3	-9.78068E-12	-346.738E-3	-346.457E-3	-157.546E-3	39.9634E-12	-1.22904E+0	26.3142E-3
-358.268E-3	-10.1323E-12	-358.569E-3	-358.268E-3	-59.1294E-3	40.0891E-12	-1.22782E+0	25.7736E-3
-370.079E-3	-10.3230E-12	-370.361E-3	-370.079E-3	17.6018E-3	39.9027E-12	-1.20941E+0	31.0801E-3
-381.890E-3	-10.6660E-12	-382.124E-3	-381.890E-3	-31.6612E-3	40.0048E-12	-1.21041E+0	26.0705E-3
-393.701E-3	-11.1051E-12	-393.993E-3	-393.701E-3	64.0873E-3	40.0790E-12	-1.18335E+0	27.2051E-3
-405.512E-3	-11.4589E-12	-405.806E-3	-405.512E-3	-39.4958E-3	40.0839E-12	-1.23216E+0	26.2062E-3
-417.323E-3	-11.6189E-12	-417.617E-3	-417.323E-3	-10.1299E-3	39.9721E-12	-1.23496E+0	30.3328E-3
-429.134E-3	-11.9430E-12	-429.417E-3	-429.134E-3	-105.531E-3	40.0180E-12	-1.26971E+0	27.9427E-3
-440.945E-3	-12.1568E-12	-441.220E-3	-440.945E-3	65.8554E-3	40.0330E-12	-1.20059E+0	25.5402E-3
-452.756E-3	-12.5056E-12	-453.032E-3	-452.756E-3	-150.330E-3	39.9525E-12	-1.29975E+0	28.4094E-3
-464.567E-3	-12.6382E-12	-464.856E-3	-464.567E-3	121.066E-3	40.0134E-12	-1.23987E+0	25.8688E-3
-476.378E-3	-12.9393E-12	-476.682E-3	-476.378E-3	-17.8597E-3	39.9960E-12	-1.27671E+0	27.5425E-3
-488.189E-3	-13.0882E-12	-488.417E-3	-488.189E-3	-110.090E-3	39.9804E-12	-1.30961E+0	26.2355E-3
-500.000E-3	-13.2771E-12	-500.251E-3	-500.000E-3	-39.9305E-3	40.0577E-12	-1.33330E+0	28.7458E-3
