Experiment	bias spectroscopy	
Date	01.12.2015 09:32:13	
User		
X (m)	281.951E-9	
Y (m)	-137.813E-9	
Z (m)	-4.07703E-9	
Z offset (m)	0E+0	
Settling time (s)	30E-3	
Integration time (s)	200E-3	
Z-Ctrl hold	TRUE	
Final Z (m)	-4.07703E-9	
Filter type	None	
Order		
Cutoff frq		
Current (A)	15.7556E-12	
Z (m)	-4.07703E-9	
Phase (deg)	-496.764E-3	
Amplitude (m)	40.2369E-12	
Frequency Shift (Hz)	-1.26265E+0	
Excitation (V)	10.3813E-3	

[DATA]
Bias calc (V)	Current (A)	Applied Voltage measured (V)	Bias (V)	Phase (deg)	Amplitude (m)	Frequency Shift (Hz)	Excitation (V)
1.00000E+0	15.7978E-12	999.328E-3	1.00000E+0	-29.9897E-3	39.9896E-12	-1.12129E+0	24.9963E-3
988.189E-3	15.8305E-12	987.530E-3	988.189E-3	-51.8401E-3	40.0174E-12	-1.11288E+0	26.4806E-3
976.378E-3	15.6092E-12	975.770E-3	976.378E-3	58.6161E-3	40.0267E-12	-1.07488E+0	24.5279E-3
964.567E-3	15.2750E-12	963.896E-3	964.567E-3	210.492E-3	40.0353E-12	-991.378E-3	25.2642E-3
952.756E-3	15.0382E-12	952.146E-3	952.756E-3	3.51325E-3	39.9548E-12	-1.04025E+0	27.9387E-3
940.945E-3	15.0193E-12	940.312E-3	940.945E-3	-29.0264E-3	40.0141E-12	-1.06425E+0	25.9203E-3
929.134E-3	14.7733E-12	928.487E-3	929.134E-3	-57.6762E-3	40.0271E-12	-1.08903E+0	24.1789E-3
917.323E-3	14.7565E-12	916.741E-3	917.323E-3	66.5761E-3	39.9964E-12	-1.05115E+0	25.1782E-3
905.512E-3	14.7014E-12	904.878E-3	905.512E-3	84.2984E-3	40.0186E-12	-1.03767E+0	29.3641E-3
893.701E-3	14.4853E-12	893.125E-3	893.701E-3	-48.1182E-3	39.9493E-12	-1.06341E+0	28.8159E-3
881.890E-3	14.3665E-12	881.284E-3	881.890E-3	-94.5394E-3	40.0357E-12	-1.07674E+0	25.5848E-3
870.079E-3	14.2110E-12	869.483E-3	870.079E-3	-76.2381E-3	39.9263E-12	-1.07943E+0	29.5241E-3
858.268E-3	14.1340E-12	857.656E-3	858.268E-3	210.961E-3	40.0195E-12	-983.834E-3	25.8192E-3
846.457E-3	14.0391E-12	845.823E-3	846.457E-3	182.861E-3	40.0129E-12	-966.328E-3	26.7931E-3
834.646E-3	13.6459E-12	834.044E-3	834.646E-3	-115.124E-3	40.0179E-12	-1.03210E+0	25.6713E-3
822.835E-3	13.6929E-12	822.233E-3	822.835E-3	-182.121E-3	39.9966E-12	-1.08742E+0	23.1424E-3
811.024E-3	13.4510E-12	810.405E-3	811.024E-3	105.245E-3	39.9433E-12	-1.00306E+0	24.3410E-3
799.213E-3	13.4219E-12	798.637E-3	799.213E-3	47.2794E-3	39.9869E-12	-1.00626E+0	25.3979E-3
787.402E-3	13.1790E-12	786.815E-3	787.402E-3	27.5555E-3	39.9851E-12	-983.497E-3	27.2458E-3
775.591E-3	13.1303E-12	775.027E-3	775.591E-3	-27.6508E-3	40.0518E-12	-975.726E-3	24.2115E-3
763.780E-3	12.8785E-12	763.194E-3	763.780E-3	-32.7546E-3	39.9706E-12	-989.749E-3	27.2724E-3
751.969E-3	12.8665E-12	751.416E-3	751.969E-3	50.7974E-3	40.0085E-12	-959.082E-3	27.4526E-3
740.157E-3	12.5157E-12	739.612E-3	740.157E-3	-20.0684E-3	39.9740E-12	-970.378E-3	24.5003E-3
728.346E-3	12.5597E-12	727.774E-3	728.346E-3	154.943E-3	39.9745E-12	-897.146E-3	25.6042E-3
716.535E-3	12.4031E-12	715.978E-3	716.535E-3	-255.461E-3	40.0478E-12	-1.02643E+0	26.2509E-3
704.724E-3	12.1999E-12	704.289E-3	704.724E-3	175.813E-3	39.9271E-12	-929.636E-3	26.2103E-3
692.913E-3	12.0649E-12	692.487E-3	692.913E-3	49.2598E-3	40.0429E-12	-950.926E-3	24.1176E-3
681.102E-3	11.7808E-12	680.718E-3	681.102E-3	-178.049E-3	40.0114E-12	-1.00955E+0	25.7491E-3
669.291E-3	11.7195E-12	668.901E-3	669.291E-3	2.08770E-3	40.0239E-12	-951.846E-3	24.9659E-3
657.480E-3	11.6492E-12	657.064E-3	657.480E-3	41.3563E-3	39.9747E-12	-942.272E-3	28.2430E-3
645.669E-3	11.3585E-12	645.265E-3	645.669E-3	-76.2461E-3	39.9939E-12	-963.211E-3	26.5253E-3
633.858E-3	11.2623E-12	633.456E-3	633.858E-3	-34.7172E-3	39.9913E-12	-955.268E-3	26.5503E-3
622.047E-3	11.1177E-12	621.647E-3	622.047E-3	34.5876E-3	40.0429E-12	-944.770E-3	23.7510E-3
610.236E-3	10.9983E-12	609.876E-3	610.236E-3	-1.02000E-3	40.0317E-12	-942.745E-3	24.0841E-3
598.425E-3	10.7343E-12	598.074E-3	598.425E-3	-111.375E-3	39.9450E-12	-986.796E-3	26.9492E-3
586.614E-3	10.7859E-12	586.263E-3	586.614E-3	143.683E-3	40.0294E-12	-905.136E-3	25.7357E-3
574.803E-3	10.4955E-12	574.449E-3	574.803E-3	-5.63711E-3	39.9607E-12	-925.167E-3	25.3390E-3
562.992E-3	10.3575E-12	562.665E-3	562.992E-3	-19.4099E-3	40.0062E-12	-937.562E-3	24.9886E-3
551.181E-3	10.1285E-12	550.850E-3	551.181E-3	25.1484E-3	39.9794E-12	-928.038E-3	26.2959E-3
539.370E-3	10.0726E-12	538.982E-3	539.370E-3	-169.612E-3	40.0230E-12	-1.00912E+0	26.4196E-3
527.559E-3	9.80705E-12	527.201E-3	527.559E-3	140.249E-3	39.9399E-12	-904.120E-3	30.2383E-3
515.748E-3	9.67541E-12	515.367E-3	515.748E-3	-83.8972E-3	39.9744E-12	-989.508E-3	25.8960E-3
503.937E-3	9.39961E-12	503.585E-3	503.937E-3	121.106E-3	40.0420E-12	-926.704E-3	24.0657E-3
492.126E-3	9.29284E-12	491.759E-3	492.126E-3	-41.0944E-3	40.0137E-12	-972.410E-3	23.7384E-3
480.315E-3	9.06434E-12	479.945E-3	480.315E-3	105.572E-3	39.8985E-12	-914.616E-3	28.6543E-3
468.504E-3	8.87852E-12	468.150E-3	468.504E-3	24.5895E-3	40.0205E-12	-910.471E-3	24.8547E-3
456.693E-3	8.77279E-12	456.342E-3	456.693E-3	-18.7300E-3	39.9107E-12	-954.418E-3	28.2475E-3
444.882E-3	8.58254E-12	444.570E-3	444.882E-3	-27.7751E-3	40.0507E-12	-936.660E-3	24.0467E-3
433.071E-3	8.25171E-12	432.745E-3	433.071E-3	-42.9289E-3	39.9860E-12	-958.275E-3	25.4036E-3
421.260E-3	8.09417E-12	420.927E-3	421.260E-3	33.7690E-3	39.9824E-12	-904.885E-3	27.8090E-3
409.449E-3	7.88661E-12	409.154E-3	409.449E-3	-19.2035E-3	40.0015E-12	-926.121E-3	23.5313E-3
397.638E-3	7.71948E-12	397.304E-3	397.638E-3	-97.7626E-3	40.0310E-12	-946.781E-3	26.7004E-3
385.827E-3	7.42794E-12	385.538E-3	385.827E-3	125.784E-3	39.9291E-12	-879.336E-3	26.3068E-3
374.016E-3	7.27715E-12	373.698E-3	374.016E-3	-156.034E-3	39.9540E-12	-988.105E-3	26.4368E-3
362.205E-3	7.14391E-12	361.891E-3	362.205E-3	137.138E-3	40.0425E-12	-891.525E-3	24.7784E-3
350.394E-3	6.81495E-12	350.146E-3	350.394E-3	-99.8131E-3	39.9330E-12	-974.465E-3	27.9912E-3
338.583E-3	6.77141E-12	338.296E-3	338.583E-3	-67.3501E-3	39.9600E-12	-986.987E-3	25.8085E-3
326.772E-3	6.44650E-12	326.506E-3	326.772E-3	-23.0572E-3	40.0870E-12	-964.520E-3	22.8815E-3
314.961E-3	6.30148E-12	314.675E-3	314.961E-3	-9.53810E-3	40.0252E-12	-986.335E-3	21.6618E-3
303.150E-3	6.01840E-12	302.855E-3	303.150E-3	106.864E-3	39.9524E-12	-950.024E-3	27.2338E-3
291.339E-3	5.83121E-12	291.107E-3	291.339E-3	-95.9431E-3	39.9651E-12	-1.00916E+0	28.0424E-3
279.528E-3	5.70164E-12	279.276E-3	279.528E-3	34.8683E-3	40.0392E-12	-965.967E-3	26.3292E-3
267.717E-3	5.45267E-12	267.467E-3	267.717E-3	-97.6126E-3	40.0517E-12	-1.02840E+0	24.4040E-3
255.906E-3	5.26487E-12	255.646E-3	255.906E-3	227.602E-3	40.0385E-12	-916.136E-3	23.4797E-3
244.094E-3	5.01842E-12	243.861E-3	244.094E-3	4.08122E-3	39.9294E-12	-959.559E-3	26.7945E-3
232.283E-3	4.83788E-12	232.010E-3	232.283E-3	-71.3675E-3	40.0802E-12	-996.668E-3	25.8139E-3
220.472E-3	4.59503E-12	220.181E-3	220.472E-3	-84.0415E-3	39.9162E-12	-1.02129E+0	29.8452E-3
208.661E-3	4.35094E-12	208.397E-3	208.661E-3	73.5239E-3	39.9590E-12	-980.289E-3	27.8022E-3
196.850E-3	4.18048E-12	196.565E-3	196.850E-3	-48.6050E-3	40.0332E-12	-1.01327E+0	28.4973E-3
185.039E-3	3.91161E-12	184.794E-3	185.039E-3	-34.3375E-3	39.9959E-12	-1.02769E+0	24.5944E-3
173.228E-3	3.69740E-12	172.981E-3	173.228E-3	-34.4110E-3	40.0215E-12	-1.02482E+0	27.9080E-3
161.417E-3	3.44692E-12	161.149E-3	161.417E-3	-76.6903E-3	39.8689E-12	-1.03544E+0	31.4035E-3
149.606E-3	3.23555E-12	149.319E-3	149.606E-3	97.6226E-3	40.0637E-12	-991.259E-3	24.3326E-3
137.795E-3	3.05372E-12	137.530E-3	137.795E-3	-97.1268E-3	40.0573E-12	-1.03669E+0	23.4537E-3
125.984E-3	2.78993E-12	125.761E-3	125.984E-3	81.9040E-3	40.0152E-12	-996.930E-3	27.9890E-3
114.173E-3	2.51896E-12	113.935E-3	114.173E-3	-19.9000E-3	40.0329E-12	-1.01043E+0	24.8259E-3
102.362E-3	2.27325E-12	102.133E-3	102.362E-3	-135.607E-3	39.9773E-12	-1.06554E+0	25.8188E-3
90.5512E-3	2.01241E-12	90.3271E-3	90.5512E-3	56.2814E-3	39.9535E-12	-1.01138E+0	30.1772E-3
78.7402E-3	1.74832E-12	78.4916E-3	78.7402E-3	-67.8901E-3	39.9532E-12	-1.05841E+0	27.3965E-3
66.9291E-3	1.54167E-12	66.6187E-3	66.9291E-3	-119.660E-3	39.9854E-12	-1.10048E+0	26.9595E-3
55.1181E-3	1.26770E-12	54.8431E-3	55.1181E-3	-65.3586E-3	40.0512E-12	-1.11390E+0	26.5333E-3
43.3071E-3	990.376E-15	43.0265E-3	43.3071E-3	-48.5010E-3	40.0193E-12	-1.11709E+0	27.2537E-3
31.4961E-3	690.601E-15	31.1970E-3	31.4961E-3	-56.2731E-3	39.9861E-12	-1.13343E+0	27.8738E-3
19.6850E-3	407.551E-15	19.3993E-3	19.6850E-3	123.191E-3	40.0520E-12	-1.06435E+0	24.3854E-3
7.87402E-3	109.585E-15	7.55485E-3	7.87402E-3	94.0163E-3	39.9311E-12	-1.06370E+0	27.1796E-3
-3.93701E-3	-224.511E-15	-4.34050E-3	-3.93701E-3	-62.3608E-3	39.9126E-12	-1.10618E+0	30.3499E-3
-15.7480E-3	-550.639E-15	-16.1278E-3	-15.7480E-3	48.9369E-3	40.0448E-12	-1.08446E+0	23.8914E-3
-27.5591E-3	-875.373E-15	-27.9355E-3	-27.5591E-3	11.3582E-3	40.0286E-12	-1.08548E+0	25.1017E-3
-39.3701E-3	-1.19438E-12	-39.7020E-3	-39.3701E-3	-88.9289E-3	39.9983E-12	-1.11468E+0	25.9456E-3
-51.1811E-3	-1.53341E-12	-51.5583E-3	-51.1811E-3	-1.14696E-3	39.8946E-12	-1.12490E+0	29.8901E-3
-62.9921E-3	-1.90179E-12	-63.3281E-3	-62.9921E-3	-84.1245E-3	40.0331E-12	-1.14115E+0	26.3808E-3
-74.8032E-3	-2.13170E-12	-75.1709E-3	-74.8032E-3	-47.7473E-3	40.0535E-12	-1.13843E+0	26.5326E-3
-86.6142E-3	-2.24182E-12	-87.0271E-3	-86.6142E-3	34.4750E-3	39.9995E-12	-1.12178E+0	24.5433E-3
-98.4252E-3	-2.39759E-12	-98.7938E-3	-98.4252E-3	-142.778E-3	40.0617E-12	-1.18883E+0	25.6204E-3
-110.236E-3	-2.48250E-12	-110.643E-3	-110.236E-3	14.4275E-3	39.9608E-12	-1.16237E+0	28.7326E-3
-122.047E-3	-2.61312E-12	-122.393E-3	-122.047E-3	137.366E-3	40.0155E-12	-1.11936E+0	25.7857E-3
-133.858E-3	-2.75831E-12	-134.250E-3	-133.858E-3	-31.8331E-3	39.9617E-12	-1.16303E+0	29.5150E-3
-145.669E-3	-2.94079E-12	-146.046E-3	-145.669E-3	-120.262E-3	39.9730E-12	-1.23718E+0	26.8761E-3
-157.480E-3	-3.09852E-12	-157.816E-3	-157.480E-3	55.8259E-3	40.0597E-12	-1.17968E+0	26.2170E-3
-169.291E-3	-3.24823E-12	-169.683E-3	-169.291E-3	-74.1165E-3	39.9816E-12	-1.22224E+0	27.2671E-3
-181.102E-3	-3.40585E-12	-181.426E-3	-181.102E-3	-59.1407E-3	40.0131E-12	-1.23137E+0	26.8486E-3
-192.913E-3	-3.52248E-12	-193.238E-3	-192.913E-3	1.31336E-3	40.0599E-12	-1.23291E+0	25.2229E-3
-204.724E-3	-3.63982E-12	-205.070E-3	-204.724E-3	83.6035E-3	39.9761E-12	-1.19380E+0	25.7594E-3
-216.535E-3	-3.80373E-12	-216.870E-3	-216.535E-3	-9.81233E-3	40.0162E-12	-1.20484E+0	27.1642E-3
-228.346E-3	-3.88038E-12	-228.674E-3	-228.346E-3	-17.8421E-3	39.9678E-12	-1.25732E+0	26.9185E-3
-240.157E-3	-4.01382E-12	-240.486E-3	-240.157E-3	7.83232E-3	39.9579E-12	-1.23749E+0	28.2518E-3
-251.969E-3	-4.22933E-12	-252.305E-3	-251.969E-3	-106.071E-3	40.0705E-12	-1.28832E+0	25.2377E-3
-263.780E-3	-4.42860E-12	-264.070E-3	-263.780E-3	6.15828E-3	40.0598E-12	-1.27349E+0	26.2720E-3
-275.591E-3	-4.57753E-12	-275.881E-3	-275.591E-3	-123.533E-3	39.8983E-12	-1.34316E+0	29.5425E-3
-287.402E-3	-4.81289E-12	-287.727E-3	-287.402E-3	120.909E-3	40.0849E-12	-1.25292E+0	20.5947E-3
-299.213E-3	-4.87680E-12	-299.512E-3	-299.213E-3	-98.1009E-3	39.9626E-12	-1.30927E+0	27.2573E-3
-311.024E-3	-5.05716E-12	-311.347E-3	-311.024E-3	-104.529E-3	39.9673E-12	-1.35504E+0	25.4456E-3
-322.835E-3	-5.15823E-12	-323.140E-3	-322.835E-3	-89.5724E-3	39.9512E-12	-1.38270E+0	28.5223E-3
-334.646E-3	-5.25107E-12	-334.908E-3	-334.646E-3	49.9502E-3	40.0046E-12	-1.33481E+0	27.4485E-3
-346.457E-3	-5.45342E-12	-346.726E-3	-346.457E-3	-42.4298E-3	40.0656E-12	-1.37602E+0	25.6552E-3
-358.268E-3	-5.53629E-12	-358.567E-3	-358.268E-3	97.3900E-3	40.0379E-12	-1.32509E+0	24.8522E-3
-370.079E-3	-5.61656E-12	-370.365E-3	-370.079E-3	-265.483E-3	39.9805E-12	-1.46997E+0	27.3622E-3
-381.890E-3	-5.75623E-12	-382.133E-3	-381.890E-3	14.0011E-3	39.9824E-12	-1.39482E+0	27.5259E-3
-393.701E-3	-5.96572E-12	-394.007E-3	-393.701E-3	-1.04214E-3	40.0720E-12	-1.41370E+0	23.9768E-3
-405.512E-3	-5.95649E-12	-405.823E-3	-405.512E-3	6.95729E-3	39.9089E-12	-1.41699E+0	28.0346E-3
-417.323E-3	-6.21346E-12	-417.611E-3	-417.323E-3	131.797E-3	40.0692E-12	-1.36971E+0	25.4502E-3
-429.134E-3	-6.31019E-12	-429.418E-3	-429.134E-3	-144.793E-3	40.0304E-12	-1.45816E+0	23.8078E-3
-440.945E-3	-6.57533E-12	-441.225E-3	-440.945E-3	-37.8320E-3	40.0311E-12	-1.45448E+0	25.6248E-3
-452.756E-3	-6.71923E-12	-453.028E-3	-452.756E-3	-31.4947E-3	39.9536E-12	-1.43963E+0	29.2207E-3
-464.567E-3	-7.00933E-12	-464.852E-3	-464.567E-3	-131.165E-3	40.0616E-12	-1.50845E+0	24.2756E-3
-476.378E-3	-7.24871E-12	-476.681E-3	-476.378E-3	-54.2262E-3	39.9486E-12	-1.50287E+0	28.6029E-3
-488.189E-3	-7.65548E-12	-488.410E-3	-488.189E-3	86.4060E-3	40.0990E-12	-1.47935E+0	25.3574E-3
-500.000E-3	-7.96962E-12	-500.251E-3	-500.000E-3	-37.6643E-3	39.9688E-12	-1.50132E+0	27.6226E-3
