Experiment	bias spectroscopy	
Date	01.12.2015 02:34:59	
User		
X (m)	280.744E-9	
Y (m)	-138.863E-9	
Z (m)	-4.07703E-9	
Z offset (m)	0E+0	
Settling time (s)	30E-3	
Integration time (s)	200E-3	
Z-Ctrl hold	TRUE	
Final Z (m)	-4.07703E-9	
Filter type	None	
Order		
Cutoff frq		
Current (A)	117.143E-12	
Z (m)	-4.07703E-9	
Phase (deg)	-677.147E-3	
Amplitude (m)	39.6995E-12	
Frequency Shift (Hz)	-1.2224E+0	
Excitation (V)	25.889E-3	

[DATA]
Bias calc (V)	Current (A)	Applied Voltage measured (V)	Bias (V)	Phase (deg)	Amplitude (m)	Frequency Shift (Hz)	Excitation (V)
1.00000E+0	113.055E-12	999.335E-3	1.00000E+0	117.883E-3	40.0124E-12	-989.506E-3	22.3483E-3
988.189E-3	112.686E-12	987.537E-3	988.189E-3	-242.578E-3	40.2250E-12	-1.11549E+0	19.7320E-3
976.378E-3	110.823E-12	975.764E-3	976.378E-3	346.693E-3	39.7846E-12	-952.840E-3	24.0107E-3
964.567E-3	110.498E-12	963.902E-3	964.567E-3	-370.584E-3	40.0212E-12	-1.17793E+0	19.5020E-3
952.756E-3	109.471E-12	952.149E-3	952.756E-3	159.083E-3	39.9830E-12	-1.01176E+0	22.1208E-3
940.945E-3	108.012E-12	940.306E-3	940.945E-3	-71.2982E-3	39.8748E-12	-1.06628E+0	21.4879E-3
929.134E-3	107.244E-12	928.487E-3	929.134E-3	123.733E-3	39.8951E-12	-997.595E-3	24.8861E-3
917.323E-3	107.134E-12	916.735E-3	917.323E-3	-98.1841E-3	40.1514E-12	-1.07485E+0	15.5180E-3
905.512E-3	106.692E-12	904.872E-3	905.512E-3	43.0703E-3	40.1308E-12	-1.00940E+0	17.2336E-3
893.701E-3	105.687E-12	893.115E-3	893.701E-3	123.272E-3	39.8806E-12	-969.706E-3	22.4613E-3
881.890E-3	103.756E-12	881.272E-3	881.890E-3	-99.1976E-3	40.1118E-12	-1.01470E+0	19.9865E-3
870.079E-3	102.433E-12	869.473E-3	870.079E-3	-104.779E-3	39.9628E-12	-1.09840E+0	18.9516E-3
858.268E-3	101.795E-12	857.643E-3	858.268E-3	173.079E-3	39.9922E-12	-1.00913E+0	22.1384E-3
846.457E-3	100.055E-12	845.812E-3	846.457E-3	371.819E-3	39.9368E-12	-917.976E-3	23.5926E-3
834.646E-3	99.9596E-12	834.044E-3	834.646E-3	-137.554E-3	40.1565E-12	-1.01812E+0	19.7036E-3
822.835E-3	98.3265E-12	822.230E-3	822.835E-3	112.339E-3	39.9430E-12	-943.255E-3	21.0446E-3
811.024E-3	97.4324E-12	810.397E-3	811.024E-3	-112.536E-3	39.9498E-12	-968.896E-3	23.5767E-3
799.213E-3	96.4626E-12	798.634E-3	799.213E-3	177.985E-3	39.9901E-12	-899.900E-3	25.2158E-3
787.402E-3	95.5663E-12	786.808E-3	787.402E-3	-108.453E-3	39.9074E-12	-1.01100E+0	22.3851E-3
775.591E-3	94.2946E-12	775.015E-3	775.591E-3	-40.9310E-3	40.0492E-12	-991.915E-3	18.4458E-3
763.780E-3	93.2403E-12	763.185E-3	763.780E-3	106.871E-3	39.8878E-12	-988.003E-3	26.0257E-3
751.969E-3	92.1698E-12	751.406E-3	751.969E-3	148.113E-3	39.9848E-12	-948.575E-3	23.1413E-3
740.157E-3	91.5683E-12	739.607E-3	740.157E-3	-79.5671E-3	40.1331E-12	-1.03263E+0	17.7127E-3
728.346E-3	90.2985E-12	727.772E-3	728.346E-3	-19.7821E-3	39.8411E-12	-1.01961E+0	21.8638E-3
716.535E-3	90.3817E-12	715.985E-3	716.535E-3	20.9088E-3	40.1587E-12	-980.465E-3	21.9405E-3
704.724E-3	87.8918E-12	704.298E-3	704.724E-3	55.7678E-3	40.0000E-12	-988.825E-3	20.8574E-3
692.913E-3	86.9840E-12	692.495E-3	692.913E-3	174.923E-3	39.8272E-12	-929.559E-3	24.0394E-3
681.102E-3	86.1765E-12	680.720E-3	681.102E-3	-176.146E-3	39.9919E-12	-1.01931E+0	23.5301E-3
669.291E-3	84.7645E-12	668.905E-3	669.291E-3	97.9065E-3	40.0566E-12	-944.798E-3	18.8439E-3
657.480E-3	83.9772E-12	657.066E-3	657.480E-3	-129.024E-3	39.9197E-12	-1.03971E+0	22.6269E-3
645.669E-3	82.8739E-12	645.258E-3	645.669E-3	112.484E-3	39.8982E-12	-959.560E-3	24.8413E-3
633.858E-3	81.6586E-12	633.449E-3	633.858E-3	36.1030E-3	40.0172E-12	-968.297E-3	23.7936E-3
622.047E-3	80.8536E-12	621.644E-3	622.047E-3	94.3834E-3	40.0036E-12	-963.766E-3	24.3635E-3
610.236E-3	79.5338E-12	609.882E-3	610.236E-3	-7.29251E-3	39.9759E-12	-968.174E-3	25.4382E-3
598.425E-3	79.2506E-12	598.070E-3	598.425E-3	83.2207E-3	40.0447E-12	-926.385E-3	23.1252E-3
586.614E-3	78.3346E-12	586.262E-3	586.614E-3	-37.9513E-3	40.0151E-12	-1.00514E+0	21.0294E-3
574.803E-3	76.9869E-12	574.446E-3	574.803E-3	-96.8555E-3	39.9720E-12	-1.01706E+0	23.7151E-3
562.992E-3	75.6897E-12	562.663E-3	562.992E-3	145.295E-3	39.9656E-12	-948.531E-3	25.7689E-3
551.181E-3	74.8690E-12	550.851E-3	551.181E-3	113.061E-3	40.0081E-12	-928.295E-3	24.3309E-3
539.370E-3	73.8027E-12	538.984E-3	539.370E-3	18.8066E-3	39.9157E-12	-962.970E-3	25.3006E-3
527.559E-3	72.8325E-12	527.202E-3	527.559E-3	110.203E-3	40.1144E-12	-936.441E-3	26.1881E-3
515.748E-3	72.2336E-12	515.372E-3	515.748E-3	-202.221E-3	40.0932E-12	-1.02915E+0	22.7159E-3
503.937E-3	68.9531E-12	503.580E-3	503.937E-3	39.1990E-3	39.9417E-12	-991.108E-3	21.4955E-3
492.126E-3	66.3655E-12	491.760E-3	492.126E-3	-101.739E-3	40.0953E-12	-1.01913E+0	20.2137E-3
480.315E-3	65.2245E-12	479.947E-3	480.315E-3	-126.683E-3	39.9994E-12	-1.07343E+0	24.1963E-3
468.504E-3	65.0580E-12	468.152E-3	468.504E-3	144.028E-3	39.9079E-12	-989.472E-3	20.6906E-3
456.693E-3	62.9818E-12	456.336E-3	456.693E-3	-42.6921E-3	39.9918E-12	-1.03880E+0	25.5996E-3
444.882E-3	61.3153E-12	444.568E-3	444.882E-3	132.066E-3	40.0419E-12	-985.047E-3	23.3760E-3
433.071E-3	60.1422E-12	432.736E-3	433.071E-3	20.8304E-3	39.9487E-12	-1.03881E+0	23.5464E-3
421.260E-3	60.6987E-12	420.928E-3	421.260E-3	158.352E-3	39.9681E-12	-983.610E-3	25.3496E-3
409.449E-3	58.4247E-12	409.149E-3	409.449E-3	25.9002E-3	39.9529E-12	-1.01993E+0	25.8044E-3
397.638E-3	57.4812E-12	397.303E-3	397.638E-3	65.1197E-3	40.0101E-12	-993.004E-3	24.3030E-3
385.827E-3	56.2642E-12	385.544E-3	385.827E-3	-116.949E-3	40.0349E-12	-1.03826E+0	22.9303E-3
374.016E-3	54.6147E-12	373.695E-3	374.016E-3	-149.510E-3	40.0199E-12	-1.09240E+0	24.9472E-3
362.205E-3	53.5093E-12	361.894E-3	362.205E-3	6.01884E-3	40.0783E-12	-1.06463E+0	24.1650E-3
350.394E-3	51.4890E-12	350.149E-3	350.394E-3	-99.2025E-3	40.0032E-12	-1.09067E+0	26.4526E-3
338.583E-3	48.5055E-12	338.294E-3	338.583E-3	-174.063E-3	40.0409E-12	-1.14455E+0	23.6271E-3
326.772E-3	46.6931E-12	326.510E-3	326.772E-3	194.195E-3	39.9982E-12	-1.03606E+0	23.8850E-3
314.961E-3	45.7615E-12	314.672E-3	314.961E-3	24.5307E-3	39.9516E-12	-1.07808E+0	25.7738E-3
303.150E-3	44.1943E-12	302.845E-3	303.150E-3	32.5234E-3	40.0475E-12	-1.08553E+0	24.1395E-3
291.339E-3	42.3757E-12	291.100E-3	291.339E-3	30.6818E-3	39.9417E-12	-1.09767E+0	24.6361E-3
279.528E-3	41.0504E-12	279.269E-3	279.528E-3	219.348E-3	39.9873E-12	-1.02282E+0	26.9776E-3
267.717E-3	39.5665E-12	267.459E-3	267.717E-3	-235.654E-3	40.0163E-12	-1.14722E+0	24.7997E-3
255.906E-3	37.7905E-12	255.638E-3	255.906E-3	-175.372E-3	40.0512E-12	-1.18620E+0	23.4219E-3
244.094E-3	36.1739E-12	243.859E-3	244.094E-3	-33.9731E-3	39.9837E-12	-1.16774E+0	26.0897E-3
232.283E-3	34.6325E-12	232.005E-3	232.283E-3	103.186E-3	40.0387E-12	-1.11559E+0	24.7285E-3
220.472E-3	32.9120E-12	220.178E-3	220.472E-3	-126.799E-3	40.0201E-12	-1.18428E+0	23.6351E-3
208.661E-3	31.3732E-12	208.397E-3	208.661E-3	195.171E-3	39.9934E-12	-1.09253E+0	24.5092E-3
196.850E-3	30.0297E-12	196.565E-3	196.850E-3	-193.011E-3	40.0615E-12	-1.21256E+0	24.9152E-3
185.039E-3	27.7808E-12	184.800E-3	185.039E-3	115.948E-3	39.8500E-12	-1.13045E+0	29.7020E-3
173.228E-3	26.0995E-12	172.996E-3	173.228E-3	-81.9952E-3	40.0471E-12	-1.21131E+0	24.5471E-3
161.417E-3	24.1864E-12	161.159E-3	161.417E-3	160.528E-3	40.0188E-12	-1.12330E+0	24.1517E-3
149.606E-3	22.6488E-12	149.333E-3	149.606E-3	-78.3460E-3	40.0276E-12	-1.19096E+0	25.3610E-3
137.795E-3	20.9012E-12	137.545E-3	137.795E-3	-92.6285E-3	39.9521E-12	-1.22876E+0	25.1140E-3
125.984E-3	19.4278E-12	125.783E-3	125.984E-3	62.8519E-3	39.9941E-12	-1.20202E+0	25.6492E-3
114.173E-3	17.3893E-12	113.944E-3	114.173E-3	-25.3052E-3	39.9671E-12	-1.23525E+0	26.9654E-3
102.362E-3	15.9102E-12	102.137E-3	102.362E-3	-59.0498E-3	40.0419E-12	-1.25761E+0	24.9799E-3
90.5512E-3	13.9289E-12	90.3212E-3	90.5512E-3	-70.3740E-3	39.9593E-12	-1.27962E+0	24.5356E-3
78.7402E-3	12.2039E-12	78.4894E-3	78.7402E-3	26.0816E-3	40.0112E-12	-1.25367E+0	26.2302E-3
66.9291E-3	10.4065E-12	66.6234E-3	66.9291E-3	19.3879E-3	39.9723E-12	-1.27323E+0	28.2747E-3
55.1181E-3	8.70884E-12	54.8456E-3	55.1181E-3	-55.5319E-3	39.9972E-12	-1.31362E+0	26.0272E-3
43.3071E-3	6.70756E-12	43.0285E-3	43.3071E-3	148.779E-3	39.9671E-12	-1.25639E+0	27.2184E-3
31.4961E-3	4.82331E-12	31.1954E-3	31.4961E-3	-5.24305E-3	40.0595E-12	-1.31398E+0	23.4261E-3
19.6850E-3	2.99563E-12	19.4004E-3	19.6850E-3	-57.4952E-3	40.0062E-12	-1.33372E+0	24.5197E-3
7.87402E-3	1.19660E-12	7.55108E-3	7.87402E-3	80.3281E-3	39.9340E-12	-1.32158E+0	25.1051E-3
-3.93701E-3	-619.208E-15	-4.34209E-3	-3.93701E-3	-16.1669E-3	39.9567E-12	-1.35503E+0	30.5139E-3
-15.7480E-3	-2.51172E-12	-16.1189E-3	-15.7480E-3	60.8483E-3	40.1181E-12	-1.34633E+0	23.0721E-3
-27.5591E-3	-4.36128E-12	-27.9244E-3	-27.5591E-3	-149.557E-3	40.0230E-12	-1.41020E+0	25.5413E-3
-39.3701E-3	-6.07594E-12	-39.6985E-3	-39.3701E-3	106.321E-3	39.9961E-12	-1.36900E+0	27.5276E-3
-51.1811E-3	-7.81579E-12	-51.5602E-3	-51.1811E-3	12.7960E-3	39.9863E-12	-1.36176E+0	26.5953E-3
-62.9921E-3	-9.05472E-12	-63.3235E-3	-62.9921E-3	-112.189E-3	40.0513E-12	-1.41613E+0	25.2596E-3
-74.8032E-3	-10.1586E-12	-75.1633E-3	-74.8032E-3	15.6802E-3	39.9787E-12	-1.40113E+0	28.9783E-3
-86.6142E-3	-11.0390E-12	-87.0200E-3	-86.6142E-3	-29.4035E-3	39.9656E-12	-1.42635E+0	26.4949E-3
-98.4252E-3	-11.8646E-12	-98.7866E-3	-98.4252E-3	-51.6042E-3	39.9838E-12	-1.44380E+0	28.0818E-3
-110.236E-3	-12.8196E-12	-110.643E-3	-110.236E-3	-4.72306E-3	40.0351E-12	-1.42456E+0	27.2577E-3
-122.047E-3	-13.8141E-12	-122.390E-3	-122.047E-3	-51.3447E-3	40.0066E-12	-1.47265E+0	26.9194E-3
-133.858E-3	-14.7071E-12	-134.239E-3	-133.858E-3	37.1604E-3	40.0112E-12	-1.43952E+0	25.3903E-3
-145.669E-3	-15.9216E-12	-146.042E-3	-145.669E-3	-55.5787E-3	40.0375E-12	-1.48236E+0	28.1807E-3
-157.480E-3	-16.8758E-12	-157.817E-3	-157.480E-3	137.060E-3	40.0486E-12	-1.42112E+0	25.7670E-3
-169.291E-3	-17.8432E-12	-169.688E-3	-169.291E-3	-27.1778E-3	40.0632E-12	-1.45531E+0	22.9170E-3
-181.102E-3	-18.7866E-12	-181.425E-3	-181.102E-3	-63.2782E-3	39.9765E-12	-1.48430E+0	24.9761E-3
-192.913E-3	-19.7834E-12	-193.230E-3	-192.913E-3	-69.3596E-3	40.0204E-12	-1.49846E+0	28.5857E-3
-204.724E-3	-20.7790E-12	-205.062E-3	-204.724E-3	-151.577E-3	40.0124E-12	-1.55355E+0	27.7279E-3
-216.535E-3	-21.9916E-12	-216.871E-3	-216.535E-3	-191.678E-3	40.0301E-12	-1.58038E+0	24.4762E-3
-228.346E-3	-23.2260E-12	-228.694E-3	-228.346E-3	109.090E-3	39.9012E-12	-1.50267E+0	28.2029E-3
-240.157E-3	-24.2728E-12	-240.477E-3	-240.157E-3	-96.9871E-3	39.9519E-12	-1.55861E+0	28.8714E-3
-251.969E-3	-25.5840E-12	-252.298E-3	-251.969E-3	40.5075E-3	40.0173E-12	-1.55394E+0	26.0090E-3
-263.780E-3	-26.7140E-12	-264.069E-3	-263.780E-3	43.1374E-3	40.0151E-12	-1.57256E+0	26.4648E-3
-275.591E-3	-27.7543E-12	-275.877E-3	-275.591E-3	-141.447E-3	39.9642E-12	-1.62527E+0	31.0560E-3
-287.402E-3	-28.6852E-12	-287.720E-3	-287.402E-3	-26.6076E-3	39.9812E-12	-1.60151E+0	28.5591E-3
-299.213E-3	-30.2293E-12	-299.510E-3	-299.213E-3	-77.6406E-3	40.0036E-12	-1.63733E+0	26.7896E-3
-311.024E-3	-30.7689E-12	-311.335E-3	-311.024E-3	-71.1625E-3	40.0088E-12	-1.62154E+0	25.5299E-3
-322.835E-3	-32.3462E-12	-323.133E-3	-322.835E-3	-110.183E-3	40.0673E-12	-1.67365E+0	26.1982E-3
-334.646E-3	-33.3778E-12	-334.905E-3	-334.646E-3	57.9998E-3	39.9671E-12	-1.64892E+0	27.9405E-3
-346.457E-3	-34.5278E-12	-346.722E-3	-346.457E-3	14.8808E-3	40.0220E-12	-1.67433E+0	27.4982E-3
-358.268E-3	-36.3203E-12	-358.559E-3	-358.268E-3	-50.3083E-3	40.0117E-12	-1.72409E+0	27.1118E-3
-370.079E-3	-37.2927E-12	-370.360E-3	-370.079E-3	74.5426E-3	40.0358E-12	-1.67254E+0	26.7709E-3
-381.890E-3	-37.7727E-12	-382.131E-3	-381.890E-3	-3.46584E-3	39.9210E-12	-1.69094E+0	26.8618E-3
-393.701E-3	-39.3237E-12	-394.010E-3	-393.701E-3	-124.399E-3	39.9916E-12	-1.74955E+0	26.6298E-3
-405.512E-3	-40.4686E-12	-405.821E-3	-405.512E-3	21.5714E-3	39.9945E-12	-1.72595E+0	25.5448E-3
-417.323E-3	-40.2974E-12	-417.621E-3	-417.323E-3	-85.8026E-3	40.0431E-12	-1.79027E+0	24.5333E-3
-429.134E-3	-41.6400E-12	-429.440E-3	-429.134E-3	7.06181E-3	40.0111E-12	-1.76051E+0	24.0454E-3
-440.945E-3	-42.7771E-12	-441.241E-3	-440.945E-3	-109.941E-3	39.9313E-12	-1.83160E+0	29.4367E-3
-452.756E-3	-43.7318E-12	-453.047E-3	-452.756E-3	33.1532E-3	40.0109E-12	-1.79998E+0	27.0688E-3
-464.567E-3	-44.2788E-12	-464.860E-3	-464.567E-3	-127.633E-3	39.9020E-12	-1.85612E+0	27.7584E-3
-476.378E-3	-46.5282E-12	-476.681E-3	-476.378E-3	38.3312E-3	40.1575E-12	-1.83656E+0	23.6774E-3
-488.189E-3	-47.6074E-12	-488.415E-3	-488.189E-3	-120.564E-3	39.9558E-12	-1.88883E+0	29.1188E-3
-500.000E-3	-49.8428E-12	-500.242E-3	-500.000E-3	-79.5736E-3	39.9420E-12	-1.90016E+0	28.6854E-3
