Experiment	bias spectroscopy	
Date	01.12.2015 02:00:13	
User		
X (m)	280.643E-9	
Y (m)	-138.95E-9	
Z (m)	-4.07703E-9	
Z offset (m)	0E+0	
Settling time (s)	30E-3	
Integration time (s)	200E-3	
Z-Ctrl hold	TRUE	
Final Z (m)	-4.07703E-9	
Filter type	None	
Order		
Cutoff frq		
Current (A)	90.5709E-12	
Z (m)	-4.07703E-9	
Phase (deg)	1.03962E+0	
Amplitude (m)	40.6123E-12	
Frequency Shift (Hz)	-804.951E-3	
Excitation (V)	8.47155E-3	

[DATA]
Bias calc (V)	Current (A)	Applied Voltage measured (V)	Bias (V)	Phase (deg)	Amplitude (m)	Frequency Shift (Hz)	Excitation (V)
1.00000E+0	87.9272E-12	999.339E-3	1.00000E+0	49.8152E-3	39.9676E-12	-1.15408E+0	23.5839E-3
988.189E-3	88.1261E-12	987.538E-3	988.189E-3	84.4430E-3	40.1549E-12	-1.12089E+0	22.5780E-3
976.378E-3	86.9700E-12	975.771E-3	976.378E-3	110.129E-3	40.0862E-12	-1.10147E+0	24.3386E-3
964.567E-3	86.4637E-12	963.899E-3	964.567E-3	-87.3208E-3	39.9793E-12	-1.12823E+0	24.8192E-3
952.756E-3	84.6048E-12	952.143E-3	952.756E-3	100.838E-3	39.9983E-12	-1.08153E+0	23.3320E-3
940.945E-3	84.0774E-12	940.312E-3	940.945E-3	-44.9869E-3	40.0070E-12	-1.10180E+0	25.1424E-3
929.134E-3	83.5590E-12	928.488E-3	929.134E-3	85.8283E-3	39.9998E-12	-1.04143E+0	25.4657E-3
917.323E-3	82.7953E-12	916.757E-3	917.323E-3	45.0734E-3	40.1337E-12	-1.05320E+0	23.9624E-3
905.512E-3	82.4006E-12	904.883E-3	905.512E-3	-216.819E-3	40.1264E-12	-1.13402E+0	20.2264E-3
893.701E-3	81.7331E-12	893.126E-3	893.701E-3	-29.9475E-3	39.9914E-12	-1.07189E+0	26.5761E-3
881.890E-3	80.3319E-12	881.284E-3	881.890E-3	208.833E-3	40.0275E-12	-997.045E-3	23.5761E-3
870.079E-3	80.1318E-12	869.472E-3	870.079E-3	-136.349E-3	40.0975E-12	-1.13377E+0	21.4100E-3
858.268E-3	78.8773E-12	857.646E-3	858.268E-3	-100.100E-3	39.8382E-12	-1.10778E+0	25.0160E-3
846.457E-3	79.3392E-12	845.823E-3	846.457E-3	-112.842E-3	40.0585E-12	-1.07664E+0	22.0829E-3
834.646E-3	77.9973E-12	834.041E-3	834.646E-3	-25.1330E-3	40.0722E-12	-1.06663E+0	21.4005E-3
822.835E-3	76.9747E-12	822.240E-3	822.835E-3	-29.2359E-3	39.9771E-12	-1.07685E+0	24.4645E-3
811.024E-3	75.7511E-12	810.410E-3	811.024E-3	123.138E-3	40.0698E-12	-1.06090E+0	20.0987E-3
799.213E-3	75.2613E-12	798.633E-3	799.213E-3	-41.8565E-3	39.9837E-12	-1.09979E+0	24.6460E-3
787.402E-3	74.6295E-12	786.807E-3	787.402E-3	11.7841E-3	40.0814E-12	-1.08112E+0	23.6170E-3
775.591E-3	73.8247E-12	775.021E-3	775.591E-3	49.0346E-3	39.9461E-12	-1.04990E+0	24.5013E-3
763.780E-3	72.0199E-12	763.191E-3	763.780E-3	12.6444E-3	40.0134E-12	-1.02803E+0	25.5163E-3
751.969E-3	72.5697E-12	751.424E-3	751.969E-3	33.2853E-3	40.0518E-12	-1.01824E+0	23.2628E-3
740.157E-3	71.3771E-12	739.613E-3	740.157E-3	-178.699E-3	40.0894E-12	-1.09945E+0	23.4107E-3
728.346E-3	70.5115E-12	727.773E-3	728.346E-3	-23.1991E-3	40.0537E-12	-1.06414E+0	20.8687E-3
716.535E-3	69.8812E-12	715.986E-3	716.535E-3	-106.074E-3	39.9134E-12	-1.08946E+0	26.4871E-3
704.724E-3	69.0746E-12	704.303E-3	704.724E-3	-36.3134E-3	40.0755E-12	-1.08312E+0	22.0835E-3
692.913E-3	68.1846E-12	692.509E-3	692.913E-3	-237.728E-3	40.0595E-12	-1.16839E+0	22.7689E-3
681.102E-3	67.1433E-12	680.724E-3	681.102E-3	150.026E-3	39.9922E-12	-1.02710E+0	23.2424E-3
669.291E-3	66.3067E-12	668.908E-3	669.291E-3	125.486E-3	40.0678E-12	-1.01723E+0	23.9155E-3
657.480E-3	65.2277E-12	657.066E-3	657.480E-3	-97.0067E-3	39.9145E-12	-1.08334E+0	26.4933E-3
645.669E-3	64.5020E-12	645.256E-3	645.669E-3	86.3402E-3	39.9680E-12	-1.03306E+0	23.5235E-3
633.858E-3	63.2542E-12	633.465E-3	633.858E-3	-79.0295E-3	39.9696E-12	-1.07640E+0	28.3755E-3
622.047E-3	63.2557E-12	621.651E-3	622.047E-3	191.994E-3	40.0702E-12	-995.972E-3	24.0530E-3
610.236E-3	61.6949E-12	609.889E-3	610.236E-3	-25.8077E-3	39.9923E-12	-1.08331E+0	22.6337E-3
598.425E-3	61.3130E-12	598.081E-3	598.425E-3	55.8873E-3	40.1100E-12	-1.03220E+0	23.6684E-3
586.614E-3	60.3878E-12	586.273E-3	586.614E-3	-13.2737E-3	39.9202E-12	-1.04497E+0	24.3190E-3
574.803E-3	59.6197E-12	574.451E-3	574.803E-3	139.612E-3	40.0950E-12	-1.00546E+0	22.8626E-3
562.992E-3	57.9580E-12	562.673E-3	562.992E-3	-75.8116E-3	39.9246E-12	-1.06494E+0	24.0937E-3
551.181E-3	57.1038E-12	550.862E-3	551.181E-3	186.048E-3	40.0348E-12	-980.132E-3	24.9519E-3
539.370E-3	56.2503E-12	539.000E-3	539.370E-3	-66.3000E-3	40.0949E-12	-1.05760E+0	24.8209E-3
527.559E-3	55.1595E-12	527.219E-3	527.559E-3	88.6163E-3	39.9331E-12	-1.02208E+0	26.1058E-3
515.748E-3	54.2710E-12	515.389E-3	515.748E-3	30.0108E-3	39.9699E-12	-1.05214E+0	28.1139E-3
503.937E-3	53.3420E-12	503.598E-3	503.937E-3	68.0449E-3	40.0389E-12	-1.02566E+0	26.3563E-3
492.126E-3	52.5415E-12	491.775E-3	492.126E-3	79.8681E-3	39.9823E-12	-1.01381E+0	24.9044E-3
480.315E-3	51.3866E-12	479.968E-3	480.315E-3	-55.0776E-3	40.0037E-12	-1.05009E+0	26.9180E-3
468.504E-3	49.8834E-12	468.178E-3	468.504E-3	-202.650E-3	39.9922E-12	-1.13906E+0	22.3082E-3
456.693E-3	48.3185E-12	456.361E-3	456.693E-3	94.1537E-3	39.9319E-12	-1.04858E+0	26.4900E-3
444.882E-3	47.7486E-12	444.593E-3	444.882E-3	-75.6228E-3	40.0615E-12	-1.10661E+0	23.8271E-3
433.071E-3	46.4308E-12	432.763E-3	433.071E-3	-37.8586E-3	40.0426E-12	-1.08241E+0	21.4045E-3
421.260E-3	45.4532E-12	420.940E-3	421.260E-3	-12.2251E-3	39.9314E-12	-1.09097E+0	25.2953E-3
409.449E-3	44.5889E-12	409.158E-3	409.449E-3	51.6613E-3	40.0129E-12	-1.05784E+0	25.1837E-3
397.638E-3	43.6739E-12	397.313E-3	397.638E-3	-18.6064E-3	39.9908E-12	-1.08389E+0	23.1372E-3
385.827E-3	42.8787E-12	385.551E-3	385.827E-3	-90.7295E-3	39.9982E-12	-1.09596E+0	23.8353E-3
374.016E-3	41.6703E-12	373.710E-3	374.016E-3	86.3045E-3	39.9391E-12	-1.03524E+0	25.3944E-3
362.205E-3	40.6806E-12	361.910E-3	362.205E-3	-51.4888E-3	40.1065E-12	-1.06056E+0	21.6328E-3
350.394E-3	40.1345E-12	350.154E-3	350.394E-3	-170.036E-3	39.9599E-12	-1.14061E+0	25.8449E-3
338.583E-3	39.3896E-12	338.306E-3	338.583E-3	44.9345E-3	40.0147E-12	-1.07902E+0	24.2048E-3
326.772E-3	36.3184E-12	326.512E-3	326.772E-3	4.71809E-3	39.9472E-12	-1.11445E+0	28.6564E-3
314.961E-3	35.1930E-12	314.670E-3	314.961E-3	-105.655E-3	40.1741E-12	-1.16662E+0	21.4496E-3
303.150E-3	33.9025E-12	302.851E-3	303.150E-3	-43.5472E-3	40.0262E-12	-1.14464E+0	22.1339E-3
291.339E-3	34.7232E-12	291.104E-3	291.339E-3	127.286E-3	39.9581E-12	-1.08894E+0	24.3807E-3
279.528E-3	31.5348E-12	279.286E-3	279.528E-3	-81.2231E-3	40.0051E-12	-1.17482E+0	25.2136E-3
267.717E-3	30.1866E-12	267.468E-3	267.717E-3	-64.4196E-3	40.0040E-12	-1.19943E+0	23.4759E-3
255.906E-3	29.1165E-12	255.644E-3	255.906E-3	28.6083E-3	39.9495E-12	-1.14780E+0	25.1084E-3
244.094E-3	25.2600E-12	243.869E-3	244.094E-3	-2.99260E-3	40.0074E-12	-1.17997E+0	26.7457E-3
232.283E-3	23.7147E-12	232.015E-3	232.283E-3	-17.4892E-3	40.0017E-12	-1.19889E+0	23.2758E-3
220.472E-3	22.5178E-12	220.187E-3	220.472E-3	-8.18869E-3	40.0242E-12	-1.19055E+0	22.8858E-3
208.661E-3	22.1614E-12	208.410E-3	208.661E-3	-50.4755E-3	39.9474E-12	-1.22800E+0	24.5308E-3
196.850E-3	21.9760E-12	196.578E-3	196.850E-3	189.613E-3	39.9285E-12	-1.15886E+0	26.6419E-3
185.039E-3	21.5000E-12	184.804E-3	185.039E-3	109.749E-3	39.9466E-12	-1.17033E+0	26.7851E-3
173.228E-3	20.2836E-12	172.988E-3	173.228E-3	104.295E-3	40.0146E-12	-1.15674E+0	25.7463E-3
161.417E-3	18.6758E-12	161.159E-3	161.417E-3	-13.6905E-3	40.0018E-12	-1.19127E+0	25.6770E-3
149.606E-3	15.0757E-12	149.339E-3	149.606E-3	-24.2673E-3	39.9623E-12	-1.22249E+0	26.6286E-3
137.795E-3	13.6762E-12	137.535E-3	137.795E-3	-65.4800E-3	40.0001E-12	-1.23769E+0	25.1854E-3
125.984E-3	12.6469E-12	125.772E-3	125.984E-3	-3.69717E-3	40.0019E-12	-1.24352E+0	25.6755E-3
114.173E-3	11.0520E-12	113.938E-3	114.173E-3	15.4620E-3	40.0321E-12	-1.23640E+0	26.9291E-3
102.362E-3	9.73725E-12	102.125E-3	102.362E-3	61.7615E-3	39.9121E-12	-1.19357E+0	30.4162E-3
90.5512E-3	8.96123E-12	90.3217E-3	90.5512E-3	-176.012E-3	40.0106E-12	-1.31214E+0	24.6904E-3
78.7402E-3	7.78007E-12	78.4829E-3	78.7402E-3	-77.6666E-3	39.9669E-12	-1.30092E+0	25.3787E-3
66.9291E-3	6.61502E-12	66.6161E-3	66.9291E-3	-90.5122E-3	40.0210E-12	-1.31301E+0	26.9421E-3
55.1181E-3	5.41138E-12	54.8331E-3	55.1181E-3	129.716E-3	40.0012E-12	-1.25752E+0	26.5266E-3
43.3071E-3	4.21416E-12	43.0227E-3	43.3071E-3	-120.544E-3	39.9888E-12	-1.34680E+0	26.3958E-3
31.4961E-3	3.04699E-12	31.1920E-3	31.4961E-3	30.0494E-3	40.0584E-12	-1.30822E+0	25.8758E-3
19.6850E-3	1.84140E-12	19.3947E-3	19.6850E-3	-55.1564E-3	39.9619E-12	-1.34018E+0	26.0012E-3
7.87402E-3	748.823E-15	7.56090E-3	7.87402E-3	-3.14944E-3	40.0296E-12	-1.32155E+0	27.0272E-3
-3.93701E-3	-454.945E-15	-4.32615E-3	-3.93701E-3	-57.0163E-3	40.0133E-12	-1.36220E+0	26.4710E-3
-15.7480E-3	-1.69839E-12	-16.1163E-3	-15.7480E-3	26.0971E-3	40.0176E-12	-1.30953E+0	27.3582E-3
-27.5591E-3	-2.93536E-12	-27.9223E-3	-27.5591E-3	8.87591E-3	40.0325E-12	-1.34627E+0	25.4154E-3
-39.3701E-3	-4.08648E-12	-39.7046E-3	-39.3701E-3	58.7060E-3	39.9972E-12	-1.32955E+0	27.0519E-3
-51.1811E-3	-5.28906E-12	-51.5561E-3	-51.1811E-3	-18.4323E-3	40.0549E-12	-1.37305E+0	25.2977E-3
-62.9921E-3	-6.33461E-12	-63.3197E-3	-62.9921E-3	-78.6074E-3	40.0204E-12	-1.42296E+0	23.1246E-3
-74.8032E-3	-7.16398E-12	-75.1655E-3	-74.8032E-3	10.3336E-3	40.0191E-12	-1.41051E+0	25.6962E-3
-86.6142E-3	-7.82049E-12	-87.0240E-3	-86.6142E-3	-126.914E-3	39.9973E-12	-1.43373E+0	26.2409E-3
-98.4252E-3	-8.50793E-12	-98.7959E-3	-98.4252E-3	-94.2542E-3	40.0102E-12	-1.44360E+0	27.4149E-3
-110.236E-3	-9.10152E-12	-110.647E-3	-110.236E-3	-50.1648E-3	39.9797E-12	-1.44403E+0	26.4592E-3
-122.047E-3	-9.70755E-12	-122.389E-3	-122.047E-3	52.8129E-3	39.9477E-12	-1.40893E+0	29.6184E-3
-133.858E-3	-10.5530E-12	-134.248E-3	-133.858E-3	-211.706E-3	40.0434E-12	-1.51822E+0	24.6302E-3
-145.669E-3	-11.1507E-12	-146.048E-3	-145.669E-3	-70.3977E-3	39.9706E-12	-1.49756E+0	27.3289E-3
-157.480E-3	-11.9932E-12	-157.826E-3	-157.480E-3	-76.0207E-3	39.9997E-12	-1.49952E+0	26.3553E-3
-169.291E-3	-12.6260E-12	-169.684E-3	-169.291E-3	77.6913E-3	40.0119E-12	-1.44782E+0	24.9827E-3
-181.102E-3	-13.2312E-12	-181.431E-3	-181.102E-3	-40.2629E-3	40.0386E-12	-1.47895E+0	28.0090E-3
-192.913E-3	-13.9912E-12	-193.244E-3	-192.913E-3	4.70695E-3	39.9783E-12	-1.45828E+0	27.6547E-3
-204.724E-3	-14.5876E-12	-205.066E-3	-204.724E-3	-89.7150E-3	39.9564E-12	-1.50397E+0	25.8599E-3
-216.535E-3	-15.6174E-12	-216.863E-3	-216.535E-3	115.825E-3	39.9662E-12	-1.44402E+0	26.9386E-3
-228.346E-3	-16.3303E-12	-228.687E-3	-228.346E-3	-202.416E-3	40.0179E-12	-1.55368E+0	28.1795E-3
-240.157E-3	-17.2285E-12	-240.490E-3	-240.157E-3	-90.2749E-3	40.0023E-12	-1.55060E+0	28.7752E-3
-251.969E-3	-17.8060E-12	-252.320E-3	-251.969E-3	-207.478E-3	40.0315E-12	-1.62752E+0	26.7163E-3
-263.780E-3	-19.0505E-12	-264.082E-3	-263.780E-3	41.2899E-3	40.0231E-12	-1.55059E+0	27.8581E-3
-275.591E-3	-19.8998E-12	-275.883E-3	-275.591E-3	-104.679E-3	39.9531E-12	-1.60291E+0	28.6359E-3
-287.402E-3	-20.3828E-12	-287.729E-3	-287.402E-3	101.212E-3	39.9386E-12	-1.56391E+0	30.0531E-3
-299.213E-3	-21.8154E-12	-299.519E-3	-299.213E-3	-36.2616E-3	40.0817E-12	-1.59718E+0	22.5627E-3
-311.024E-3	-22.3827E-12	-311.343E-3	-311.024E-3	80.1058E-3	39.9479E-12	-1.55721E+0	28.2380E-3
-322.835E-3	-23.1006E-12	-323.133E-3	-322.835E-3	-209.689E-3	40.0178E-12	-1.69218E+0	28.1255E-3
-334.646E-3	-23.8151E-12	-334.916E-3	-334.646E-3	84.8240E-3	40.0017E-12	-1.61376E+0	28.9530E-3
-346.457E-3	-23.9942E-12	-346.733E-3	-346.457E-3	5.41170E-3	40.0163E-12	-1.63517E+0	27.3815E-3
-358.268E-3	-25.5817E-12	-358.576E-3	-358.268E-3	66.5935E-3	39.9288E-12	-1.62145E+0	28.9024E-3
-370.079E-3	-27.1980E-12	-370.374E-3	-370.079E-3	-169.983E-3	39.9432E-12	-1.72087E+0	31.6155E-3
-381.890E-3	-28.2367E-12	-382.135E-3	-381.890E-3	-31.9778E-3	40.0624E-12	-1.68326E+0	23.7772E-3
-393.701E-3	-28.8691E-12	-394.005E-3	-393.701E-3	-49.5235E-3	39.9530E-12	-1.70622E+0	30.5404E-3
-405.512E-3	-29.7666E-12	-405.822E-3	-405.512E-3	21.1606E-3	39.9843E-12	-1.69677E+0	28.2362E-3
-417.323E-3	-32.0111E-12	-417.616E-3	-417.323E-3	234.817E-6	39.9923E-12	-1.75543E+0	30.5559E-3
-429.134E-3	-31.4655E-12	-429.426E-3	-429.134E-3	-43.4544E-3	40.0203E-12	-1.78211E+0	27.4944E-3
-440.945E-3	-31.7050E-12	-441.230E-3	-440.945E-3	46.6261E-3	40.0184E-12	-1.76083E+0	28.7449E-3
-452.756E-3	-32.5932E-12	-453.040E-3	-452.756E-3	29.7833E-3	39.8989E-12	-1.77126E+0	29.9936E-3
-464.567E-3	-33.8639E-12	-464.862E-3	-464.567E-3	-46.7298E-3	40.0619E-12	-1.79958E+0	25.1892E-3
-476.378E-3	-34.1750E-12	-476.694E-3	-476.378E-3	-212.458E-3	40.0250E-12	-1.88344E+0	28.7718E-3
-488.189E-3	-34.6169E-12	-488.422E-3	-488.189E-3	-26.4805E-3	39.9470E-12	-1.83422E+0	28.4454E-3
-500.000E-3	-37.2170E-12	-500.266E-3	-500.000E-3	-88.9975E-3	40.0346E-12	-1.88016E+0	28.6807E-3
