Experiment	bias spectroscopy	
Date	01.12.2015 02:44:50	
User		
X (m)	281.487E-9	
Y (m)	-139.718E-9	
Z (m)	-4.07703E-9	
Z offset (m)	0E+0	
Settling time (s)	30E-3	
Integration time (s)	200E-3	
Z-Ctrl hold	TRUE	
Final Z (m)	-4.07703E-9	
Filter type	None	
Order		
Cutoff frq		
Current (A)	11.875E-12	
Z (m)	-4.07703E-9	
Phase (deg)	-321.591E-3	
Amplitude (m)	40.0101E-12	
Frequency Shift (Hz)	-1.25926E+0	
Excitation (V)	31.0585E-3	

[DATA]
Bias calc (V)	Current (A)	Applied Voltage measured (V)	Bias (V)	Phase (deg)	Amplitude (m)	Frequency Shift (Hz)	Excitation (V)
1.00000E+0	11.4628E-12	999.327E-3	1.00000E+0	-60.7826E-3	39.9886E-12	-1.16089E+0	26.0791E-3
988.189E-3	11.3354E-12	987.531E-3	988.189E-3	56.6291E-3	39.9954E-12	-1.13748E+0	26.3920E-3
976.378E-3	11.0546E-12	975.761E-3	976.378E-3	33.3918E-3	40.0630E-12	-1.12533E+0	25.6488E-3
964.567E-3	11.0959E-12	963.908E-3	964.567E-3	59.0214E-3	40.0406E-12	-1.10805E+0	24.9962E-3
952.756E-3	10.9190E-12	952.154E-3	952.756E-3	87.3247E-3	40.0085E-12	-1.09352E+0	25.4958E-3
940.945E-3	10.6845E-12	940.309E-3	940.945E-3	-49.8650E-3	39.9674E-12	-1.11911E+0	27.6265E-3
929.134E-3	10.6766E-12	928.485E-3	929.134E-3	173.950E-3	39.9002E-12	-1.04615E+0	26.5708E-3
917.323E-3	10.7001E-12	916.731E-3	917.323E-3	91.3504E-3	40.0791E-12	-1.04747E+0	26.9089E-3
905.512E-3	10.4712E-12	904.867E-3	905.512E-3	47.7529E-3	39.9844E-12	-1.05469E+0	23.5788E-3
893.701E-3	10.4144E-12	893.119E-3	893.701E-3	-113.920E-3	40.0224E-12	-1.10601E+0	27.1327E-3
881.890E-3	10.2860E-12	881.280E-3	881.890E-3	-86.3437E-3	39.9704E-12	-1.10445E+0	26.8289E-3
870.079E-3	10.2937E-12	869.478E-3	870.079E-3	5.75884E-3	40.0464E-12	-1.09367E+0	25.6495E-3
858.268E-3	10.2138E-12	857.657E-3	858.268E-3	1.49132E-3	39.9839E-12	-1.12047E+0	26.3457E-3
846.457E-3	9.92344E-12	845.820E-3	846.457E-3	3.97805E-3	40.0622E-12	-1.10382E+0	25.1369E-3
834.646E-3	9.93441E-12	834.048E-3	834.646E-3	48.7004E-3	40.0110E-12	-1.08559E+0	24.9222E-3
822.835E-3	9.74645E-12	822.235E-3	822.835E-3	-38.9590E-3	39.9600E-12	-1.09747E+0	26.4333E-3
811.024E-3	9.74288E-12	810.412E-3	811.024E-3	36.3413E-3	40.0797E-12	-1.06797E+0	23.9654E-3
799.213E-3	9.63436E-12	798.646E-3	799.213E-3	10.8157E-3	39.9481E-12	-1.07085E+0	26.2629E-3
787.402E-3	9.49642E-12	786.810E-3	787.402E-3	-24.3852E-3	39.9952E-12	-1.07169E+0	26.3104E-3
775.591E-3	9.29028E-12	775.014E-3	775.591E-3	-20.0007E-3	40.0666E-12	-1.06298E+0	24.7931E-3
763.780E-3	9.30581E-12	763.191E-3	763.780E-3	23.8799E-3	39.9780E-12	-1.04682E+0	27.0405E-3
751.969E-3	9.27473E-12	751.409E-3	751.969E-3	-45.7445E-3	40.0792E-12	-1.06727E+0	21.7221E-3
740.157E-3	9.01888E-12	739.614E-3	740.157E-3	-27.5781E-3	39.9510E-12	-1.06765E+0	25.4516E-3
728.346E-3	8.97427E-12	727.766E-3	728.346E-3	43.9329E-3	40.0066E-12	-1.04524E+0	23.8896E-3
716.535E-3	8.80604E-12	715.977E-3	716.535E-3	64.2867E-3	39.9494E-12	-1.02108E+0	25.2780E-3
704.724E-3	8.85319E-12	704.291E-3	704.724E-3	-79.5497E-3	40.0299E-12	-1.04136E+0	23.6045E-3
692.913E-3	8.61382E-12	692.492E-3	692.913E-3	8.98081E-3	39.9953E-12	-1.01984E+0	25.4898E-3
681.102E-3	8.60502E-12	680.714E-3	681.102E-3	-54.7913E-3	39.9523E-12	-1.04263E+0	27.7182E-3
669.291E-3	8.43918E-12	668.903E-3	669.291E-3	74.1570E-3	39.9638E-12	-999.802E-3	27.2187E-3
657.480E-3	8.33226E-12	657.066E-3	657.480E-3	4.54181E-3	40.0010E-12	-980.035E-3	28.2200E-3
645.669E-3	8.22205E-12	645.260E-3	645.669E-3	-36.2510E-3	40.0565E-12	-1.00961E+0	25.7204E-3
633.858E-3	8.16837E-12	633.456E-3	633.858E-3	62.6221E-3	39.9320E-12	-991.406E-3	28.2264E-3
622.047E-3	7.93075E-12	621.649E-3	622.047E-3	-66.4788E-3	40.0367E-12	-1.05199E+0	23.7452E-3
610.236E-3	7.94931E-12	609.886E-3	610.236E-3	-25.9058E-3	40.0281E-12	-1.03502E+0	25.2024E-3
598.425E-3	7.79952E-12	598.082E-3	598.425E-3	83.8341E-3	40.0439E-12	-995.417E-3	23.4082E-3
586.614E-3	7.63834E-12	586.272E-3	586.614E-3	1.45273E-3	39.9123E-12	-1.01185E+0	27.3150E-3
574.803E-3	7.65417E-12	574.447E-3	574.803E-3	-51.4357E-3	40.0307E-12	-1.02340E+0	25.6342E-3
562.992E-3	7.35509E-12	562.669E-3	562.992E-3	-5.90231E-3	40.0348E-12	-1.00850E+0	25.8608E-3
551.181E-3	7.39207E-12	550.852E-3	551.181E-3	-55.0177E-3	40.0479E-12	-1.03592E+0	23.0857E-3
539.370E-3	7.24067E-12	538.987E-3	539.370E-3	-60.8277E-3	39.9086E-12	-1.03904E+0	26.0051E-3
527.559E-3	7.14818E-12	527.208E-3	527.559E-3	-30.5862E-3	40.0461E-12	-1.02787E+0	23.4036E-3
515.748E-3	7.03731E-12	515.373E-3	515.748E-3	50.4738E-3	40.0219E-12	-1.02341E+0	27.7812E-3
503.937E-3	6.89088E-12	503.580E-3	503.937E-3	42.3995E-3	39.9608E-12	-1.00502E+0	26.2205E-3
492.126E-3	6.69400E-12	491.758E-3	492.126E-3	-98.6919E-3	39.9498E-12	-1.02751E+0	25.5249E-3
480.315E-3	6.61583E-12	479.947E-3	480.315E-3	1.08194E-3	40.1008E-12	-1.02323E+0	24.3402E-3
468.504E-3	6.45720E-12	468.159E-3	468.504E-3	45.5262E-3	39.9723E-12	-1.00521E+0	24.7742E-3
456.693E-3	6.31763E-12	456.350E-3	456.693E-3	134.175E-3	39.9224E-12	-968.163E-3	28.3620E-3
444.882E-3	6.21636E-12	444.580E-3	444.882E-3	42.3615E-3	40.0572E-12	-993.138E-3	24.4638E-3
433.071E-3	6.18505E-12	432.736E-3	433.071E-3	-21.2023E-3	40.0049E-12	-1.01324E+0	27.0516E-3
421.260E-3	5.98850E-12	420.927E-3	421.260E-3	-50.7617E-3	40.0411E-12	-1.05251E+0	23.4350E-3
409.449E-3	5.80286E-12	409.154E-3	409.449E-3	-35.6517E-3	39.9908E-12	-1.04108E+0	25.6364E-3
397.638E-3	5.75827E-12	397.306E-3	397.638E-3	-12.1933E-3	39.9499E-12	-1.01901E+0	29.0924E-3
385.827E-3	5.56611E-12	385.546E-3	385.827E-3	-51.7745E-3	40.0039E-12	-1.04245E+0	26.1609E-3
374.016E-3	5.49436E-12	373.699E-3	374.016E-3	-45.3641E-3	40.0398E-12	-1.06005E+0	24.5663E-3
362.205E-3	5.26746E-12	361.905E-3	362.205E-3	-105.811E-3	40.0180E-12	-1.07081E+0	23.8784E-3
350.394E-3	5.13457E-12	350.159E-3	350.394E-3	50.1390E-3	40.0182E-12	-1.02177E+0	24.6736E-3
338.583E-3	4.98695E-12	338.298E-3	338.583E-3	3.71328E-3	39.9334E-12	-1.04824E+0	30.6814E-3
326.772E-3	4.80356E-12	326.508E-3	326.772E-3	158.478E-3	39.9652E-12	-1.00100E+0	24.1530E-3
314.961E-3	4.66852E-12	314.676E-3	314.961E-3	141.268E-3	40.0649E-12	-974.637E-3	26.1133E-3
303.150E-3	4.57838E-12	302.852E-3	303.150E-3	7.13286E-3	39.9718E-12	-1.01310E+0	26.9587E-3
291.339E-3	4.38125E-12	291.099E-3	291.339E-3	-122.888E-3	40.0046E-12	-1.06212E+0	26.6665E-3
279.528E-3	4.17877E-12	279.272E-3	279.528E-3	-24.6656E-3	40.0158E-12	-1.04083E+0	25.4290E-3
267.717E-3	4.04595E-12	267.462E-3	267.717E-3	-48.6004E-3	39.9630E-12	-1.06136E+0	29.1947E-3
255.906E-3	3.88605E-12	255.641E-3	255.906E-3	11.7379E-3	40.0670E-12	-1.03589E+0	23.1153E-3
244.094E-3	3.71985E-12	243.857E-3	244.094E-3	-111.402E-3	40.0356E-12	-1.06769E+0	22.8935E-3
232.283E-3	3.52534E-12	232.008E-3	232.283E-3	-57.5687E-3	40.0546E-12	-1.07355E+0	24.0987E-3
220.472E-3	3.36920E-12	220.171E-3	220.472E-3	-94.5101E-3	39.9305E-12	-1.10214E+0	25.5756E-3
208.661E-3	3.16674E-12	208.388E-3	208.661E-3	139.436E-3	40.0230E-12	-1.02971E+0	27.6919E-3
196.850E-3	2.98750E-12	196.562E-3	196.850E-3	-23.3510E-3	39.9792E-12	-1.07220E+0	26.2336E-3
185.039E-3	2.81904E-12	184.792E-3	185.039E-3	-79.3224E-3	40.0158E-12	-1.09529E+0	28.0476E-3
173.228E-3	2.62608E-12	172.979E-3	173.228E-3	4.37057E-3	39.9884E-12	-1.07129E+0	25.3342E-3
161.417E-3	2.44656E-12	161.142E-3	161.417E-3	25.9571E-3	40.0560E-12	-1.08542E+0	22.0950E-3
149.606E-3	2.26449E-12	149.321E-3	149.606E-3	-90.9881E-3	39.9676E-12	-1.11814E+0	24.3377E-3
137.795E-3	2.09058E-12	137.528E-3	137.795E-3	111.356E-3	40.0079E-12	-1.05996E+0	25.2023E-3
125.984E-3	1.89941E-12	125.769E-3	125.984E-3	65.1696E-3	39.9285E-12	-1.06607E+0	28.0367E-3
114.173E-3	1.69713E-12	113.935E-3	114.173E-3	54.7074E-3	39.9530E-12	-1.07766E+0	27.6095E-3
102.362E-3	1.51421E-12	102.126E-3	102.362E-3	-209.076E-3	40.0318E-12	-1.20105E+0	25.6940E-3
90.5512E-3	1.34377E-12	90.3159E-3	90.5512E-3	68.3071E-3	39.9779E-12	-1.12765E+0	27.1849E-3
78.7402E-3	1.15833E-12	78.4839E-3	78.7402E-3	-109.049E-3	40.0384E-12	-1.18189E+0	26.3751E-3
66.9291E-3	941.228E-15	66.6175E-3	66.9291E-3	-59.2449E-3	39.9528E-12	-1.18876E+0	27.6409E-3
55.1181E-3	759.686E-15	54.8467E-3	55.1181E-3	59.1716E-3	40.0250E-12	-1.15840E+0	27.2755E-3
43.3071E-3	568.189E-15	43.0334E-3	43.3071E-3	60.7706E-3	40.0593E-12	-1.14796E+0	24.8870E-3
31.4961E-3	387.117E-15	31.2022E-3	31.4961E-3	-57.8002E-3	39.9901E-12	-1.18463E+0	26.6039E-3
19.6850E-3	195.998E-15	19.4084E-3	19.6850E-3	42.4347E-3	39.9634E-12	-1.15157E+0	25.8733E-3
7.87402E-3	6.00412E-15	7.55900E-3	7.87402E-3	57.7963E-3	40.0400E-12	-1.13873E+0	25.2217E-3
-3.93701E-3	-198.698E-15	-4.33310E-3	-3.93701E-3	41.1106E-3	40.0192E-12	-1.12886E+0	25.3345E-3
-15.7480E-3	-403.471E-15	-16.1217E-3	-15.7480E-3	-13.7057E-3	39.9731E-12	-1.15514E+0	29.5312E-3
-27.5591E-3	-631.328E-15	-27.9331E-3	-27.5591E-3	-123.077E-3	40.0140E-12	-1.19108E+0	26.5922E-3
-39.3701E-3	-838.019E-15	-39.7003E-3	-39.3701E-3	-163.058E-3	40.0148E-12	-1.24392E+0	25.9796E-3
-51.1811E-3	-1.04174E-12	-51.5598E-3	-51.1811E-3	-85.7749E-3	40.0465E-12	-1.26855E+0	25.6349E-3
-62.9921E-3	-1.25775E-12	-63.3244E-3	-62.9921E-3	120.043E-3	39.9641E-12	-1.19501E+0	27.7130E-3
-74.8032E-3	-1.43990E-12	-75.1636E-3	-74.8032E-3	-28.3808E-3	40.0390E-12	-1.22536E+0	24.7285E-3
-86.6142E-3	-1.56445E-12	-87.0164E-3	-86.6142E-3	-277.884E-3	39.9437E-12	-1.32261E+0	30.3803E-3
-98.4252E-3	-1.62874E-12	-98.7933E-3	-98.4252E-3	30.2188E-3	40.0085E-12	-1.25736E+0	26.9599E-3
-110.236E-3	-1.74409E-12	-110.645E-3	-110.236E-3	-40.4894E-3	40.0335E-12	-1.28350E+0	27.0473E-3
-122.047E-3	-1.81630E-12	-122.392E-3	-122.047E-3	15.6855E-3	39.9730E-12	-1.28001E+0	26.6663E-3
-133.858E-3	-1.95594E-12	-134.244E-3	-133.858E-3	-3.90513E-3	40.0447E-12	-1.29830E+0	23.6925E-3
-145.669E-3	-2.04390E-12	-146.042E-3	-145.669E-3	-3.41344E-3	39.9351E-12	-1.28578E+0	27.4150E-3
-157.480E-3	-2.16342E-12	-157.810E-3	-157.480E-3	-82.4068E-3	40.0582E-12	-1.31433E+0	23.2881E-3
-169.291E-3	-2.21052E-12	-169.679E-3	-169.291E-3	17.1350E-3	39.9748E-12	-1.29515E+0	24.9458E-3
-181.102E-3	-2.35288E-12	-181.428E-3	-181.102E-3	-46.0163E-3	40.0496E-12	-1.32128E+0	24.0833E-3
-192.913E-3	-2.42545E-12	-193.238E-3	-192.913E-3	-30.6809E-3	39.9880E-12	-1.32959E+0	26.4244E-3
-204.724E-3	-2.52580E-12	-205.074E-3	-204.724E-3	-155.707E-3	40.0479E-12	-1.38594E+0	25.4675E-3
-216.535E-3	-2.60983E-12	-216.881E-3	-216.535E-3	95.5452E-3	39.9997E-12	-1.30076E+0	23.1200E-3
-228.346E-3	-2.70696E-12	-228.694E-3	-228.346E-3	132.050E-3	39.9809E-12	-1.29652E+0	25.5404E-3
-240.157E-3	-2.81661E-12	-240.491E-3	-240.157E-3	-55.6455E-3	40.0350E-12	-1.35966E+0	23.5086E-3
-251.969E-3	-2.92033E-12	-252.316E-3	-251.969E-3	-25.2186E-3	39.9823E-12	-1.36582E+0	26.0192E-3
-263.780E-3	-3.00228E-12	-264.089E-3	-263.780E-3	-190.269E-3	39.9998E-12	-1.43694E+0	24.7068E-3
-275.591E-3	-3.12695E-12	-275.887E-3	-275.591E-3	-59.7748E-3	39.9639E-12	-1.41953E+0	28.3502E-3
-287.402E-3	-3.23685E-12	-287.732E-3	-287.402E-3	-172.740E-3	40.0039E-12	-1.50809E+0	26.2353E-3
-299.213E-3	-3.35436E-12	-299.523E-3	-299.213E-3	56.3958E-3	40.0030E-12	-1.42656E+0	24.2735E-3
-311.024E-3	-3.41104E-12	-311.349E-3	-311.024E-3	113.834E-3	39.9990E-12	-1.38078E+0	27.4203E-3
-322.835E-3	-3.51132E-12	-323.144E-3	-322.835E-3	-71.5616E-3	40.0190E-12	-1.43134E+0	28.5107E-3
-334.646E-3	-3.58126E-12	-334.922E-3	-334.646E-3	-50.3555E-3	40.0098E-12	-1.43957E+0	24.8935E-3
-346.457E-3	-3.67973E-12	-346.737E-3	-346.457E-3	-151.915E-3	40.0041E-12	-1.50885E+0	27.4107E-3
-358.268E-3	-3.74843E-12	-358.577E-3	-358.268E-3	11.5955E-3	39.9727E-12	-1.47907E+0	24.2417E-3
-370.079E-3	-3.83357E-12	-370.375E-3	-370.079E-3	-41.1168E-3	40.0621E-12	-1.49229E+0	27.4949E-3
-381.890E-3	-3.89913E-12	-382.141E-3	-381.890E-3	110.077E-3	39.9861E-12	-1.45871E+0	28.3877E-3
-393.701E-3	-3.99563E-12	-394.010E-3	-393.701E-3	-54.4445E-3	39.9914E-12	-1.48905E+0	27.7465E-3
-405.512E-3	-4.08056E-12	-405.814E-3	-405.512E-3	-131.848E-3	39.9587E-12	-1.55001E+0	28.2727E-3
-417.323E-3	-4.30238E-12	-417.621E-3	-417.323E-3	-65.5821E-3	40.0530E-12	-1.54823E+0	24.4375E-3
-429.134E-3	-4.36850E-12	-429.427E-3	-429.134E-3	-60.3018E-3	40.0014E-12	-1.55675E+0	24.7668E-3
-440.945E-3	-4.55827E-12	-441.227E-3	-440.945E-3	-76.1242E-3	39.9819E-12	-1.57688E+0	25.1139E-3
-452.756E-3	-4.70824E-12	-453.037E-3	-452.756E-3	-111.843E-3	39.9646E-12	-1.60963E+0	27.5399E-3
-464.567E-3	-4.87275E-12	-464.854E-3	-464.567E-3	186.486E-6	40.0203E-12	-1.59023E+0	25.2164E-3
-476.378E-3	-5.12595E-12	-476.682E-3	-476.378E-3	113.788E-3	39.9996E-12	-1.53129E+0	26.8527E-3
-488.189E-3	-5.28243E-12	-488.426E-3	-488.189E-3	-199.651E-3	39.9224E-12	-1.65408E+0	29.8525E-3
-500.000E-3	-5.53636E-12	-500.268E-3	-500.000E-3	29.3205E-3	39.9775E-12	-1.60040E+0	27.0825E-3
