Experiment	bias spectroscopy	
Date	30.11.2015 22:55:46	
User		
X (m)	29.8261E-9	
Y (m)	-166.605E-9	
Z (m)	-3.75578E-9	
Z offset (m)	0E+0	
Settling time (s)	30E-3	
Integration time (s)	200E-3	
Z-Ctrl hold	TRUE	
Final Z (m)	-3.75578E-9	
Filter type	None	
Order		
Cutoff frq		
Current (A)	15.5124E-12	
Z (m)	-3.75578E-9	
Phase (deg)	-346.429E-3	
Amplitude (m)	40.314E-12	
Frequency Shift (Hz)	-912.954E-3	
Excitation (V)	18.212E-3	

[DATA]
Bias calc (V)	Current (A)	Applied Voltage measured (V)	Bias (V)	Phase (deg)	Amplitude (m)	Frequency Shift (Hz)	Excitation (V)
1.00000E+0	15.2697E-12	999.318E-3	1.00000E+0	77.2273E-3	40.0372E-12	-752.666E-3	26.5534E-3
988.189E-3	15.2364E-12	987.519E-3	988.189E-3	-182.542E-3	40.0433E-12	-834.343E-3	26.0644E-3
976.378E-3	14.9625E-12	975.756E-3	976.378E-3	139.489E-3	40.0098E-12	-767.664E-3	25.1560E-3
964.567E-3	14.7879E-12	963.892E-3	964.567E-3	19.8883E-3	39.9831E-12	-792.993E-3	27.1406E-3
952.756E-3	14.7596E-12	952.130E-3	952.756E-3	941.078E-6	40.0662E-12	-779.978E-3	25.1107E-3
940.945E-3	14.4920E-12	940.292E-3	940.945E-3	-153.480E-3	40.0275E-12	-853.052E-3	24.9033E-3
929.134E-3	14.3403E-12	928.476E-3	929.134E-3	-88.0786E-3	40.0324E-12	-830.140E-3	27.0915E-3
917.323E-3	14.1193E-12	916.732E-3	917.323E-3	-32.2117E-3	39.9596E-12	-817.115E-3	26.6631E-3
905.512E-3	14.0597E-12	904.873E-3	905.512E-3	55.1708E-3	40.0222E-12	-774.987E-3	24.9253E-3
893.701E-3	13.9781E-12	893.111E-3	893.701E-3	86.2129E-3	40.0406E-12	-736.247E-3	25.3115E-3
881.890E-3	13.6330E-12	881.270E-3	881.890E-3	-199.167E-3	40.0162E-12	-825.217E-3	26.7922E-3
870.079E-3	13.4437E-12	869.464E-3	870.079E-3	120.247E-3	40.0088E-12	-754.064E-3	25.4016E-3
858.268E-3	13.2788E-12	857.641E-3	858.268E-3	17.1649E-3	40.0226E-12	-770.885E-3	25.2640E-3
846.457E-3	13.3333E-12	845.810E-3	846.457E-3	-125.104E-3	40.0114E-12	-791.004E-3	26.1633E-3
834.646E-3	13.0955E-12	834.039E-3	834.646E-3	7.93313E-3	40.0014E-12	-757.059E-3	24.5973E-3
822.835E-3	12.8774E-12	822.233E-3	822.835E-3	-196.744E-3	40.0037E-12	-816.115E-3	26.5272E-3
811.024E-3	12.6623E-12	810.406E-3	811.024E-3	114.070E-3	39.9537E-12	-709.532E-3	28.0138E-3
799.213E-3	12.6394E-12	798.633E-3	799.213E-3	-15.4598E-3	40.0141E-12	-744.854E-3	28.2608E-3
787.402E-3	12.4156E-12	786.805E-3	787.402E-3	207.036E-3	39.9588E-12	-689.338E-3	28.6425E-3
775.591E-3	12.3184E-12	775.012E-3	775.591E-3	-13.0987E-3	40.0108E-12	-733.664E-3	25.6641E-3
763.780E-3	12.2592E-12	763.181E-3	763.780E-3	-81.9357E-3	39.9975E-12	-772.792E-3	25.7020E-3
751.969E-3	11.9620E-12	751.407E-3	751.969E-3	-30.2073E-3	40.0326E-12	-760.711E-3	27.0175E-3
740.157E-3	11.9020E-12	739.597E-3	740.157E-3	75.8589E-3	39.9431E-12	-710.006E-3	29.0974E-3
728.346E-3	11.7339E-12	727.765E-3	728.346E-3	-51.9445E-3	40.0559E-12	-740.418E-3	25.4488E-3
716.535E-3	11.5681E-12	715.985E-3	716.535E-3	22.7328E-3	40.0924E-12	-714.241E-3	24.7548E-3
704.724E-3	11.2243E-12	704.290E-3	704.724E-3	60.0493E-3	39.9911E-12	-717.597E-3	23.8353E-3
692.913E-3	11.0962E-12	692.492E-3	692.913E-3	-7.94829E-3	39.9862E-12	-735.970E-3	26.5590E-3
681.102E-3	11.0025E-12	680.727E-3	681.102E-3	-102.733E-3	39.9888E-12	-778.508E-3	24.2418E-3
669.291E-3	10.6360E-12	668.915E-3	669.291E-3	-24.4971E-3	39.9474E-12	-762.078E-3	27.2476E-3
657.480E-3	10.5444E-12	657.066E-3	657.480E-3	29.7179E-3	40.0478E-12	-726.852E-3	23.4441E-3
645.669E-3	10.2819E-12	645.261E-3	645.669E-3	-130.136E-3	40.0353E-12	-777.249E-3	22.6849E-3
633.858E-3	10.3679E-12	633.453E-3	633.858E-3	133.401E-3	40.0567E-12	-677.971E-3	26.6806E-3
622.047E-3	10.1824E-12	621.645E-3	622.047E-3	1.84784E-3	40.0596E-12	-707.534E-3	22.0611E-3
610.236E-3	9.97488E-12	609.879E-3	610.236E-3	12.0257E-3	39.9498E-12	-716.109E-3	28.0178E-3
598.425E-3	9.81472E-12	598.074E-3	598.425E-3	69.9339E-3	39.9904E-12	-700.937E-3	25.8408E-3
586.614E-3	9.56935E-12	586.258E-3	586.614E-3	-30.4898E-3	40.0003E-12	-728.472E-3	27.8118E-3
574.803E-3	9.38912E-12	574.442E-3	574.803E-3	150.325E-3	40.0043E-12	-660.585E-3	26.9689E-3
562.992E-3	9.24013E-12	562.672E-3	562.992E-3	-98.4932E-3	39.9740E-12	-719.634E-3	27.2362E-3
551.181E-3	9.06794E-12	550.859E-3	551.181E-3	54.5316E-3	40.0018E-12	-706.035E-3	26.9741E-3
539.370E-3	8.81281E-12	538.998E-3	539.370E-3	55.6682E-3	39.9719E-12	-681.949E-3	31.3256E-3
527.559E-3	8.76394E-12	527.209E-3	527.559E-3	-40.3903E-3	40.0521E-12	-720.828E-3	28.9158E-3
515.748E-3	8.68080E-12	515.379E-3	515.748E-3	-16.4789E-3	40.0378E-12	-719.630E-3	27.0478E-3
503.937E-3	8.34477E-12	503.590E-3	503.937E-3	167.493E-3	39.9453E-12	-648.242E-3	27.1535E-3
492.126E-3	8.27353E-12	491.767E-3	492.126E-3	38.5422E-3	40.0515E-12	-669.605E-3	21.9667E-3
480.315E-3	8.03025E-12	479.948E-3	480.315E-3	-46.0665E-3	39.9905E-12	-710.099E-3	24.3026E-3
468.504E-3	7.83702E-12	468.152E-3	468.504E-3	24.7788E-3	40.0598E-12	-713.030E-3	23.4363E-3
456.693E-3	7.63921E-12	456.344E-3	456.693E-3	-51.9431E-3	39.9683E-12	-724.854E-3	28.3311E-3
444.882E-3	7.40381E-12	444.571E-3	444.882E-3	-29.6747E-3	39.9226E-12	-722.324E-3	28.7126E-3
433.071E-3	7.28990E-12	432.732E-3	433.071E-3	-183.664E-3	40.0752E-12	-772.056E-3	25.5809E-3
421.260E-3	7.15298E-12	420.922E-3	421.260E-3	-16.9069E-3	39.9291E-12	-722.602E-3	27.0326E-3
409.449E-3	6.91671E-12	409.149E-3	409.449E-3	-16.0147E-3	40.0315E-12	-741.964E-3	27.4899E-3
397.638E-3	6.75906E-12	397.296E-3	397.638E-3	67.6603E-3	39.9971E-12	-690.187E-3	26.4317E-3
385.827E-3	6.54375E-12	385.531E-3	385.827E-3	-76.9769E-3	39.9944E-12	-733.260E-3	27.1817E-3
374.016E-3	6.41565E-12	373.685E-3	374.016E-3	-16.5540E-3	39.9861E-12	-715.211E-3	27.3613E-3
362.205E-3	6.22489E-12	361.889E-3	362.205E-3	20.4806E-3	39.9845E-12	-692.929E-3	29.6020E-3
350.394E-3	6.03428E-12	350.136E-3	350.394E-3	-76.3048E-3	39.9927E-12	-736.963E-3	28.0941E-3
338.583E-3	5.85085E-12	338.281E-3	338.583E-3	27.0708E-3	39.9847E-12	-730.300E-3	29.4081E-3
326.772E-3	5.66020E-12	326.499E-3	326.772E-3	-34.2093E-3	40.0399E-12	-736.748E-3	25.6659E-3
314.961E-3	5.50294E-12	314.666E-3	314.961E-3	-18.3443E-3	40.0116E-12	-719.008E-3	27.7179E-3
303.150E-3	5.30640E-12	302.843E-3	303.150E-3	-39.9218E-3	39.9701E-12	-735.874E-3	26.9778E-3
291.339E-3	5.04040E-12	291.095E-3	291.339E-3	44.0988E-3	40.0307E-12	-725.856E-3	25.1895E-3
279.528E-3	4.92058E-12	279.264E-3	279.528E-3	-28.8745E-3	40.0263E-12	-744.033E-3	23.2291E-3
267.717E-3	4.70664E-12	267.450E-3	267.717E-3	-47.4750E-3	40.0132E-12	-746.387E-3	27.3322E-3
255.906E-3	4.42459E-12	255.630E-3	255.906E-3	43.9336E-3	40.0211E-12	-729.827E-3	29.0883E-3
244.094E-3	4.27667E-12	243.854E-3	244.094E-3	-16.2701E-3	39.9461E-12	-755.927E-3	27.4795E-3
232.283E-3	4.11050E-12	232.002E-3	232.283E-3	44.6823E-3	40.0446E-12	-718.064E-3	25.3415E-3
220.472E-3	3.86477E-12	220.175E-3	220.472E-3	-33.0869E-3	39.9923E-12	-744.021E-3	27.7087E-3
208.661E-3	3.65500E-12	208.390E-3	208.661E-3	13.7624E-3	39.9621E-12	-742.419E-3	28.1749E-3
196.850E-3	3.44578E-12	196.560E-3	196.850E-3	-50.3297E-3	39.9524E-12	-750.712E-3	30.2031E-3
185.039E-3	3.23855E-12	184.803E-3	185.039E-3	-25.6512E-3	40.0520E-12	-753.343E-3	27.6547E-3
173.228E-3	3.00764E-12	172.989E-3	173.228E-3	4.00500E-3	40.0339E-12	-759.280E-3	23.9277E-3
161.417E-3	2.71744E-12	161.151E-3	161.417E-3	-105.051E-3	40.0010E-12	-804.893E-3	24.3154E-3
149.606E-3	2.52389E-12	149.325E-3	149.606E-3	184.763E-3	39.9759E-12	-742.075E-3	29.0586E-3
137.795E-3	2.23842E-12	137.543E-3	137.795E-3	-69.8965E-3	40.0124E-12	-806.989E-3	26.2487E-3
125.984E-3	2.02403E-12	125.770E-3	125.984E-3	-140.984E-3	40.0143E-12	-819.051E-3	25.4092E-3
114.173E-3	1.79837E-12	113.935E-3	114.173E-3	33.3017E-3	39.9359E-12	-774.809E-3	27.9541E-3
102.362E-3	1.60222E-12	102.134E-3	102.362E-3	-22.4565E-3	39.9972E-12	-787.484E-3	29.8484E-3
90.5512E-3	1.38182E-12	90.3243E-3	90.5512E-3	-90.6739E-3	40.0094E-12	-814.854E-3	28.7263E-3
78.7402E-3	1.19186E-12	78.4935E-3	78.7402E-3	-14.8810E-3	40.1065E-12	-790.927E-3	23.3127E-3
66.9291E-3	977.928E-15	66.6212E-3	66.9291E-3	-201.304E-3	39.9174E-12	-883.244E-3	27.7108E-3
55.1181E-3	773.271E-15	54.8552E-3	55.1181E-3	45.4967E-3	40.0008E-12	-854.481E-3	28.2769E-3
43.3071E-3	573.216E-15	43.0366E-3	43.3071E-3	31.5830E-3	39.9388E-12	-833.574E-3	29.0073E-3
31.4961E-3	376.613E-15	31.1972E-3	31.4961E-3	2.86997E-3	40.0842E-12	-844.759E-3	23.5833E-3
19.6850E-3	183.292E-15	19.4051E-3	19.6850E-3	46.9260E-3	40.0152E-12	-828.289E-3	25.3709E-3
7.87402E-3	3.39861E-15	7.54425E-3	7.87402E-3	-14.0914E-3	39.9428E-12	-845.329E-3	27.9440E-3
-3.93701E-3	-190.207E-15	-4.35063E-3	-3.93701E-3	-91.8870E-3	39.9977E-12	-870.233E-3	26.2714E-3
-15.7480E-3	-374.719E-15	-16.1331E-3	-15.7480E-3	-183.176E-3	40.0270E-12	-938.487E-3	26.5897E-3
-27.5591E-3	-566.661E-15	-27.9425E-3	-27.5591E-3	-73.9911E-3	40.0155E-12	-908.411E-3	25.8931E-3
-39.3701E-3	-757.760E-15	-39.7082E-3	-39.3701E-3	57.5649E-3	39.9568E-12	-868.445E-3	27.1705E-3
-51.1811E-3	-950.045E-15	-51.5595E-3	-51.1811E-3	-62.6315E-3	40.0215E-12	-905.239E-3	26.2977E-3
-62.9921E-3	-1.12662E-12	-63.3339E-3	-62.9921E-3	-116.318E-3	39.9771E-12	-930.493E-3	27.2882E-3
-74.8032E-3	-1.26578E-12	-75.1704E-3	-74.8032E-3	89.9238E-3	40.0152E-12	-877.041E-3	25.8598E-3
-86.6142E-3	-1.37225E-12	-87.0305E-3	-86.6142E-3	-91.1277E-3	40.0586E-12	-937.355E-3	25.6678E-3
-98.4252E-3	-1.43798E-12	-98.7960E-3	-98.4252E-3	-70.0532E-3	40.0402E-12	-938.253E-3	23.3424E-3
-110.236E-3	-1.53870E-12	-110.656E-3	-110.236E-3	-49.8439E-3	39.9343E-12	-919.010E-3	27.7946E-3
-122.047E-3	-1.61029E-12	-122.393E-3	-122.047E-3	-88.6755E-3	39.9930E-12	-955.215E-3	26.8126E-3
-133.858E-3	-1.68104E-12	-134.245E-3	-133.858E-3	122.335E-3	40.0065E-12	-916.070E-3	26.4076E-3
-145.669E-3	-1.72688E-12	-146.051E-3	-145.669E-3	42.9546E-3	39.9781E-12	-912.967E-3	27.1119E-3
-157.480E-3	-1.82567E-12	-157.829E-3	-157.480E-3	95.1552E-3	40.0169E-12	-919.699E-3	30.7298E-3
-169.291E-3	-1.87518E-12	-169.701E-3	-169.291E-3	-21.9966E-3	40.0640E-12	-972.392E-3	27.0320E-3
-181.102E-3	-1.90835E-12	-181.443E-3	-181.102E-3	-32.3161E-3	39.9855E-12	-965.407E-3	26.9117E-3
-192.913E-3	-1.98791E-12	-193.255E-3	-192.913E-3	-125.509E-3	40.0089E-12	-1.00839E+0	26.2195E-3
-204.724E-3	-2.05947E-12	-205.088E-3	-204.724E-3	93.5267E-3	39.9763E-12	-949.776E-3	26.9777E-3
-216.535E-3	-2.10747E-12	-216.885E-3	-216.535E-3	-161.277E-3	39.9758E-12	-1.04485E+0	26.8006E-3
-228.346E-3	-2.16803E-12	-228.709E-3	-228.346E-3	90.0711E-3	40.0230E-12	-964.539E-3	27.7744E-3
-240.157E-3	-2.23494E-12	-240.504E-3	-240.157E-3	-29.2352E-3	40.0193E-12	-1.01282E+0	26.3819E-3
-251.969E-3	-2.28949E-12	-252.324E-3	-251.969E-3	-223.941E-3	39.9860E-12	-1.07239E+0	24.4581E-3
-263.780E-3	-2.32223E-12	-264.087E-3	-263.780E-3	-8.46397E-3	40.0035E-12	-1.03499E+0	28.0880E-3
-275.591E-3	-2.41591E-12	-275.893E-3	-275.591E-3	63.5071E-3	40.0159E-12	-991.320E-3	27.4712E-3
-287.402E-3	-2.47082E-12	-287.732E-3	-287.402E-3	2.14914E-3	39.9695E-12	-1.01447E+0	27.9394E-3
-299.213E-3	-2.51467E-12	-299.527E-3	-299.213E-3	-117.460E-3	39.9092E-12	-1.03969E+0	27.7628E-3
-311.024E-3	-2.60966E-12	-311.353E-3	-311.024E-3	-75.0195E-3	40.0704E-12	-1.07129E+0	27.0339E-3
-322.835E-3	-2.67257E-12	-323.154E-3	-322.835E-3	-145.558E-3	40.0213E-12	-1.11222E+0	26.3447E-3
-334.646E-3	-2.68449E-12	-334.928E-3	-334.646E-3	46.8803E-3	39.9004E-12	-1.05149E+0	28.1516E-3
-346.457E-3	-2.77870E-12	-346.743E-3	-346.457E-3	70.5335E-3	40.0063E-12	-1.04700E+0	27.3790E-3
-358.268E-3	-2.84758E-12	-358.579E-3	-358.268E-3	-149.163E-3	40.0048E-12	-1.12475E+0	26.8455E-3
-370.079E-3	-2.91844E-12	-370.379E-3	-370.079E-3	-60.1224E-3	40.0344E-12	-1.12615E+0	26.7345E-3
-381.890E-3	-2.94322E-12	-382.146E-3	-381.890E-3	6.47089E-3	40.0073E-12	-1.11950E+0	25.0435E-3
-393.701E-3	-3.03626E-12	-394.016E-3	-393.701E-3	-150.580E-3	39.9428E-12	-1.15735E+0	29.0122E-3
-405.512E-3	-3.10646E-12	-405.832E-3	-405.512E-3	30.1748E-3	39.9535E-12	-1.13650E+0	29.1695E-3
-417.323E-3	-3.13113E-12	-417.633E-3	-417.323E-3	-164.530E-3	40.0413E-12	-1.20398E+0	25.4149E-3
-429.134E-3	-3.21917E-12	-429.439E-3	-429.134E-3	94.9228E-3	39.9916E-12	-1.13587E+0	24.9955E-3
-440.945E-3	-3.28841E-12	-441.236E-3	-440.945E-3	-120.961E-3	40.0389E-12	-1.21818E+0	26.1478E-3
-452.756E-3	-3.32082E-12	-453.044E-3	-452.756E-3	2.95476E-3	39.9128E-12	-1.18960E+0	28.7643E-3
-464.567E-3	-3.30736E-12	-464.866E-3	-464.567E-3	-40.3969E-3	39.9981E-12	-1.22902E+0	28.2416E-3
-476.378E-3	-3.40858E-12	-476.695E-3	-476.378E-3	92.5621E-3	40.0057E-12	-1.20793E+0	27.4214E-3
-488.189E-3	-3.44863E-12	-488.423E-3	-488.189E-3	-109.731E-3	40.0269E-12	-1.28251E+0	27.7850E-3
-500.000E-3	-3.43318E-12	-500.260E-3	-500.000E-3	-104.424E-3	39.9759E-12	-1.28139E+0	27.9448E-3
