Experiment	bias spectroscopy	
Date	01.12.2015 07:12:34	
User		
X (m)	281.505E-9	
Y (m)	-138.113E-9	
Z (m)	-4.07703E-9	
Z offset (m)	0E+0	
Settling time (s)	30E-3	
Integration time (s)	200E-3	
Z-Ctrl hold	TRUE	
Final Z (m)	-4.07703E-9	
Filter type	None	
Order		
Cutoff frq		
Current (A)	15.7373E-12	
Z (m)	-4.07703E-9	
Phase (deg)	-477.838E-3	
Amplitude (m)	40.1916E-12	
Frequency Shift (Hz)	-1.21358E+0	
Excitation (V)	17.2679E-3	

[DATA]
Bias calc (V)	Current (A)	Applied Voltage measured (V)	Bias (V)	Phase (deg)	Amplitude (m)	Frequency Shift (Hz)	Excitation (V)
1.00000E+0	15.3490E-12	999.346E-3	1.00000E+0	38.5619E-3	40.0879E-12	-1.02265E+0	22.8752E-3
988.189E-3	15.0738E-12	987.547E-3	988.189E-3	-66.3827E-3	39.9826E-12	-1.07490E+0	26.2350E-3
976.378E-3	15.0696E-12	975.787E-3	976.378E-3	10.6126E-3	40.0069E-12	-1.05508E+0	25.0537E-3
964.567E-3	14.8115E-12	963.907E-3	964.567E-3	121.309E-3	39.9833E-12	-1.02179E+0	28.3683E-3
952.756E-3	14.7964E-12	952.152E-3	952.756E-3	-69.8379E-3	40.0155E-12	-1.07766E+0	24.6846E-3
940.945E-3	14.6129E-12	940.313E-3	940.945E-3	78.7416E-3	40.0090E-12	-1.02780E+0	26.6596E-3
929.134E-3	14.4656E-12	928.486E-3	929.134E-3	196.831E-3	40.0094E-12	-975.458E-3	23.5074E-3
917.323E-3	14.2530E-12	916.735E-3	917.323E-3	-42.8582E-3	39.9723E-12	-1.03197E+0	28.6710E-3
905.512E-3	14.2918E-12	904.882E-3	905.512E-3	28.3804E-3	39.9926E-12	-1.00483E+0	25.2896E-3
893.701E-3	13.9496E-12	893.129E-3	893.701E-3	-110.123E-3	40.0040E-12	-1.07265E+0	26.8315E-3
881.890E-3	14.1245E-12	881.291E-3	881.890E-3	-36.1814E-3	39.9768E-12	-1.06125E+0	27.7932E-3
870.079E-3	13.8233E-12	869.473E-3	870.079E-3	159.241E-3	40.0116E-12	-973.516E-3	25.3371E-3
858.268E-3	13.5874E-12	857.664E-3	858.268E-3	90.9735E-3	39.9869E-12	-975.193E-3	26.4013E-3
846.457E-3	13.4994E-12	845.834E-3	846.457E-3	80.8823E-3	39.9870E-12	-971.136E-3	22.6743E-3
834.646E-3	13.5182E-12	834.063E-3	834.646E-3	2.93580E-3	39.9967E-12	-992.648E-3	26.5662E-3
822.835E-3	13.3654E-12	822.253E-3	822.835E-3	176.086E-3	40.0030E-12	-926.279E-3	27.5348E-3
811.024E-3	13.0962E-12	810.427E-3	811.024E-3	35.2264E-3	39.9950E-12	-927.753E-3	23.2943E-3
799.213E-3	12.7929E-12	798.660E-3	799.213E-3	3.43926E-3	39.9698E-12	-961.482E-3	26.9707E-3
787.402E-3	12.9163E-12	786.826E-3	787.402E-3	-54.1938E-3	40.0792E-12	-976.676E-3	22.6452E-3
775.591E-3	12.6734E-12	775.052E-3	775.591E-3	107.500E-3	39.9577E-12	-924.723E-3	27.1285E-3
763.780E-3	12.5204E-12	763.211E-3	763.780E-3	13.6369E-3	40.0728E-12	-954.922E-3	23.5298E-3
751.969E-3	12.3369E-12	751.436E-3	751.969E-3	34.2646E-3	39.9730E-12	-937.977E-3	27.3923E-3
740.157E-3	12.3381E-12	739.640E-3	740.157E-3	-6.48385E-3	40.0200E-12	-947.785E-3	26.0983E-3
728.346E-3	12.0983E-12	727.794E-3	728.346E-3	-59.2307E-3	39.9992E-12	-991.499E-3	25.8295E-3
716.535E-3	11.7524E-12	716.011E-3	716.535E-3	52.2360E-3	39.9454E-12	-959.482E-3	27.6668E-3
704.724E-3	11.8244E-12	704.319E-3	704.724E-3	138.840E-3	40.0230E-12	-910.598E-3	24.4021E-3
692.913E-3	11.5830E-12	692.516E-3	692.913E-3	1.10382E-3	39.9857E-12	-951.636E-3	26.8849E-3
681.102E-3	11.6630E-12	680.743E-3	681.102E-3	-156.792E-3	40.0506E-12	-1.00266E+0	22.9852E-3
669.291E-3	11.2863E-12	668.922E-3	669.291E-3	-8.62384E-3	40.0038E-12	-966.423E-3	24.8630E-3
657.480E-3	11.2466E-12	657.083E-3	657.480E-3	-48.3755E-3	40.0517E-12	-967.664E-3	25.1360E-3
645.669E-3	11.0487E-12	645.280E-3	645.669E-3	112.527E-3	40.0241E-12	-907.880E-3	24.4528E-3
633.858E-3	10.9701E-12	633.476E-3	633.858E-3	-92.1842E-3	40.0785E-12	-962.623E-3	24.4594E-3
622.047E-3	10.7370E-12	621.678E-3	622.047E-3	10.9627E-3	39.9724E-12	-952.540E-3	24.9838E-3
610.236E-3	10.5291E-12	609.906E-3	610.236E-3	16.3839E-3	40.0113E-12	-955.531E-3	23.1692E-3
598.425E-3	10.3673E-12	598.093E-3	598.425E-3	-107.184E-3	40.0033E-12	-981.774E-3	25.2666E-3
586.614E-3	10.2333E-12	586.285E-3	586.614E-3	35.7761E-3	40.0268E-12	-943.821E-3	25.2063E-3
574.803E-3	10.0588E-12	574.469E-3	574.803E-3	117.114E-3	39.9616E-12	-904.863E-3	25.5644E-3
562.992E-3	9.95177E-12	562.682E-3	562.992E-3	-20.7712E-3	40.0103E-12	-946.456E-3	26.7137E-3
551.181E-3	9.76574E-12	550.876E-3	551.181E-3	-63.2816E-3	40.1111E-12	-964.155E-3	23.5481E-3
539.370E-3	9.48810E-12	539.012E-3	539.370E-3	-72.3567E-3	39.9595E-12	-977.873E-3	26.1198E-3
527.559E-3	9.32944E-12	527.227E-3	527.559E-3	51.4867E-3	40.0080E-12	-927.282E-3	25.6577E-3
515.748E-3	9.13784E-12	515.403E-3	515.748E-3	96.7526E-3	39.9467E-12	-910.036E-3	26.8517E-3
503.937E-3	8.97746E-12	503.610E-3	503.937E-3	-35.4825E-3	40.0071E-12	-939.355E-3	26.2858E-3
492.126E-3	8.86193E-12	491.783E-3	492.126E-3	7.32702E-3	40.0671E-12	-916.980E-3	26.7418E-3
480.315E-3	8.72094E-12	479.970E-3	480.315E-3	86.0289E-3	40.0206E-12	-892.900E-3	25.7386E-3
468.504E-3	8.41808E-12	468.187E-3	468.504E-3	5.68856E-3	39.9755E-12	-916.997E-3	27.3219E-3
456.693E-3	8.42132E-12	456.378E-3	456.693E-3	74.9735E-3	40.0602E-12	-910.940E-3	24.8077E-3
444.882E-3	8.05987E-12	444.610E-3	444.882E-3	95.3896E-3	39.9521E-12	-895.696E-3	27.9657E-3
433.071E-3	7.88711E-12	432.776E-3	433.071E-3	-88.6258E-3	39.9790E-12	-944.602E-3	26.8953E-3
421.260E-3	7.81764E-12	420.967E-3	421.260E-3	-92.7792E-3	40.0732E-12	-973.800E-3	23.0520E-3
409.449E-3	7.54383E-12	409.181E-3	409.449E-3	4.19103E-3	40.0092E-12	-938.303E-3	22.3080E-3
397.638E-3	7.37790E-12	397.336E-3	397.638E-3	-38.9713E-3	39.9753E-12	-956.989E-3	23.3775E-3
385.827E-3	7.08928E-12	385.570E-3	385.827E-3	80.7083E-3	40.0015E-12	-915.238E-3	25.7826E-3
374.016E-3	6.95422E-12	373.726E-3	374.016E-3	-45.3529E-3	40.0014E-12	-957.194E-3	26.2575E-3
362.205E-3	6.85767E-12	361.924E-3	362.205E-3	-18.6037E-3	39.9329E-12	-940.033E-3	25.9518E-3
350.394E-3	6.69668E-12	350.177E-3	350.394E-3	-51.7748E-3	40.0517E-12	-957.552E-3	23.9216E-3
338.583E-3	6.38982E-12	338.318E-3	338.583E-3	27.5454E-3	40.0105E-12	-945.728E-3	26.2884E-3
326.772E-3	6.30190E-12	326.538E-3	326.772E-3	-42.4259E-3	40.0004E-12	-981.224E-3	24.6630E-3
314.961E-3	6.16717E-12	314.702E-3	314.961E-3	92.2597E-3	39.9653E-12	-922.867E-3	25.7559E-3
303.150E-3	5.99111E-12	302.874E-3	303.150E-3	14.1998E-3	40.0168E-12	-931.560E-3	25.6320E-3
291.339E-3	5.71989E-12	291.121E-3	291.339E-3	-101.660E-3	39.9350E-12	-982.521E-3	27.7863E-3
279.528E-3	5.57257E-12	279.294E-3	279.528E-3	14.4177E-3	39.9911E-12	-937.284E-3	26.3802E-3
267.717E-3	5.32391E-12	267.470E-3	267.717E-3	19.5618E-3	39.9645E-12	-941.838E-3	28.1920E-3
255.906E-3	5.23275E-12	255.655E-3	255.906E-3	-45.5973E-3	39.9888E-12	-955.439E-3	25.8228E-3
244.094E-3	5.05313E-12	243.876E-3	244.094E-3	-128.610E-3	40.0002E-12	-1.00741E+0	25.3448E-3
232.283E-3	4.86487E-12	232.024E-3	232.283E-3	-14.1855E-3	39.9862E-12	-980.830E-3	28.3099E-3
220.472E-3	4.59647E-12	220.191E-3	220.472E-3	117.115E-3	39.9288E-12	-934.581E-3	27.5086E-3
208.661E-3	4.44269E-12	208.413E-3	208.661E-3	-20.4553E-3	40.0350E-12	-985.365E-3	25.4600E-3
196.850E-3	4.27145E-12	196.580E-3	196.850E-3	-25.5152E-3	40.0285E-12	-978.381E-3	25.8187E-3
185.039E-3	3.96330E-12	184.809E-3	185.039E-3	27.7367E-3	39.9787E-12	-997.142E-3	23.5294E-3
173.228E-3	3.79876E-12	172.999E-3	173.228E-3	57.4954E-3	39.9322E-12	-965.091E-3	29.0086E-3
161.417E-3	3.57126E-12	161.168E-3	161.417E-3	-43.0347E-3	39.9686E-12	-1.01054E+0	28.9334E-3
149.606E-3	3.32902E-12	149.337E-3	149.606E-3	-114.682E-3	39.9915E-12	-1.04539E+0	25.4305E-3
137.795E-3	3.13640E-12	137.545E-3	137.795E-3	135.191E-3	40.0114E-12	-972.884E-3	24.1555E-3
125.984E-3	2.78275E-12	125.786E-3	125.984E-3	-33.2475E-3	39.9457E-12	-1.01222E+0	27.9607E-3
114.173E-3	2.54630E-12	113.954E-3	114.173E-3	6.01922E-3	40.0292E-12	-1.00183E+0	23.1078E-3
102.362E-3	2.25621E-12	102.158E-3	102.362E-3	13.3220E-3	40.0158E-12	-1.01940E+0	25.7716E-3
90.5512E-3	2.03568E-12	90.3412E-3	90.5512E-3	-94.8850E-3	39.9380E-12	-1.08008E+0	29.4374E-3
78.7402E-3	1.76457E-12	78.5097E-3	78.7402E-3	116.754E-3	39.9606E-12	-1.02336E+0	29.7927E-3
66.9291E-3	1.48687E-12	66.6414E-3	66.9291E-3	97.7065E-3	40.0104E-12	-1.01365E+0	26.9412E-3
55.1181E-3	1.20013E-12	54.8662E-3	55.1181E-3	110.584E-3	40.0406E-12	-988.045E-3	25.8836E-3
43.3071E-3	928.265E-15	43.0415E-3	43.3071E-3	-158.634E-3	39.9855E-12	-1.07408E+0	28.3487E-3
31.4961E-3	653.325E-15	31.2212E-3	31.4961E-3	61.0658E-3	39.9874E-12	-1.02617E+0	25.4371E-3
19.6850E-3	362.598E-15	19.4228E-3	19.6850E-3	-65.5626E-3	39.9691E-12	-1.08133E+0	27.4696E-3
7.87402E-3	79.2292E-15	7.56822E-3	7.87402E-3	-32.5926E-3	40.0688E-12	-1.07546E+0	23.6953E-3
-3.93701E-3	-226.584E-15	-4.31993E-3	-3.93701E-3	-117.055E-3	40.0294E-12	-1.11020E+0	24.9128E-3
-15.7480E-3	-546.008E-15	-16.1051E-3	-15.7480E-3	15.6258E-3	39.9757E-12	-1.08960E+0	26.6151E-3
-27.5591E-3	-855.204E-15	-27.9142E-3	-27.5591E-3	45.9717E-3	40.0455E-12	-1.06767E+0	27.2028E-3
-39.3701E-3	-1.17252E-12	-39.6894E-3	-39.3701E-3	-43.5475E-3	40.0493E-12	-1.10069E+0	27.4572E-3
-51.1811E-3	-1.46683E-12	-51.5425E-3	-51.1811E-3	-173.772E-3	39.9552E-12	-1.16526E+0	26.5706E-3
-62.9921E-3	-1.76616E-12	-63.3138E-3	-62.9921E-3	-80.4779E-3	40.0336E-12	-1.15371E+0	26.5337E-3
-74.8032E-3	-1.97899E-12	-75.1518E-3	-74.8032E-3	-12.3671E-3	39.9864E-12	-1.14944E+0	27.6231E-3
-86.6142E-3	-2.08598E-12	-87.0065E-3	-86.6142E-3	-27.6610E-3	40.0342E-12	-1.15670E+0	27.3449E-3
-98.4252E-3	-2.23941E-12	-98.7856E-3	-98.4252E-3	32.6429E-3	40.0506E-12	-1.13091E+0	24.3045E-3
-110.236E-3	-2.35781E-12	-110.639E-3	-110.236E-3	45.2552E-3	40.0025E-12	-1.11481E+0	24.1022E-3
-122.047E-3	-2.45106E-12	-122.381E-3	-122.047E-3	36.4236E-3	39.9451E-12	-1.14077E+0	28.2328E-3
-133.858E-3	-2.61865E-12	-134.233E-3	-133.858E-3	-46.5589E-3	40.0432E-12	-1.16984E+0	28.5642E-3
-145.669E-3	-2.77242E-12	-146.028E-3	-145.669E-3	39.5302E-3	40.0401E-12	-1.16374E+0	27.2583E-3
-157.480E-3	-2.91284E-12	-157.803E-3	-157.480E-3	41.2330E-3	39.9118E-12	-1.16592E+0	27.9745E-3
-169.291E-3	-3.05743E-12	-169.676E-3	-169.291E-3	-86.0712E-3	40.0706E-12	-1.20332E+0	25.3918E-3
-181.102E-3	-3.21600E-12	-181.420E-3	-181.102E-3	-59.1816E-3	39.9795E-12	-1.22242E+0	27.8851E-3
-192.913E-3	-3.33794E-12	-193.227E-3	-192.913E-3	74.8418E-3	39.9858E-12	-1.18309E+0	30.0099E-3
-204.724E-3	-3.43209E-12	-205.061E-3	-204.724E-3	41.1510E-3	40.0548E-12	-1.18666E+0	26.2746E-3
-216.535E-3	-3.55659E-12	-216.857E-3	-216.535E-3	-106.314E-3	39.9560E-12	-1.24722E+0	26.6657E-3
-228.346E-3	-3.67239E-12	-228.671E-3	-228.346E-3	-39.8863E-3	40.0170E-12	-1.24841E+0	28.2123E-3
-240.157E-3	-3.80546E-12	-240.479E-3	-240.157E-3	10.2412E-3	39.9845E-12	-1.23479E+0	25.0196E-3
-251.969E-3	-3.99250E-12	-252.303E-3	-251.969E-3	-64.7770E-3	39.9482E-12	-1.28676E+0	28.9198E-3
-263.780E-3	-4.17137E-12	-264.067E-3	-263.780E-3	144.081E-3	40.0970E-12	-1.22234E+0	23.7181E-3
-275.591E-3	-4.27883E-12	-275.880E-3	-275.591E-3	-173.328E-3	39.9332E-12	-1.33441E+0	28.2643E-3
-287.402E-3	-4.50887E-12	-287.716E-3	-287.402E-3	207.129E-3	40.0302E-12	-1.22513E+0	27.0240E-3
-299.213E-3	-4.66687E-12	-299.510E-3	-299.213E-3	-123.588E-3	40.0168E-12	-1.32204E+0	26.5576E-3
-311.024E-3	-4.78393E-12	-311.343E-3	-311.024E-3	-80.9597E-3	39.9756E-12	-1.31927E+0	29.0503E-3
-322.835E-3	-4.90095E-12	-323.140E-3	-322.835E-3	-49.2053E-3	40.0501E-12	-1.31870E+0	22.3979E-3
-334.646E-3	-4.97998E-12	-334.918E-3	-334.646E-3	29.4711E-3	39.9558E-12	-1.32492E+0	27.3687E-3
-346.457E-3	-5.07042E-12	-346.731E-3	-346.457E-3	-109.500E-3	39.9916E-12	-1.35393E+0	28.5367E-3
-358.268E-3	-5.27700E-12	-358.577E-3	-358.268E-3	58.1361E-3	40.0200E-12	-1.31399E+0	28.4829E-3
-370.079E-3	-5.43450E-12	-370.375E-3	-370.079E-3	-198.316E-3	39.9601E-12	-1.40550E+0	28.9462E-3
-381.890E-3	-5.49090E-12	-382.146E-3	-381.890E-3	-94.5685E-3	39.9407E-12	-1.40320E+0	28.6923E-3
-393.701E-3	-5.63395E-12	-394.006E-3	-393.701E-3	43.0951E-3	40.0126E-12	-1.38922E+0	24.4630E-3
-405.512E-3	-5.72025E-12	-405.819E-3	-405.512E-3	50.6887E-3	39.9582E-12	-1.39089E+0	27.2331E-3
-417.323E-3	-5.92915E-12	-417.624E-3	-417.323E-3	-13.9957E-3	40.0377E-12	-1.40328E+0	25.6549E-3
-429.134E-3	-6.01682E-12	-429.427E-3	-429.134E-3	-62.9599E-3	39.9781E-12	-1.41876E+0	25.2385E-3
-440.945E-3	-6.23786E-12	-441.219E-3	-440.945E-3	-29.0314E-3	39.9992E-12	-1.43287E+0	25.3730E-3
-452.756E-3	-6.40871E-12	-453.026E-3	-452.756E-3	-48.9799E-3	39.9884E-12	-1.46212E+0	26.3494E-3
-464.567E-3	-6.65388E-12	-464.852E-3	-464.567E-3	-24.8500E-3	39.9732E-12	-1.46428E+0	28.2178E-3
-476.378E-3	-6.93444E-12	-476.690E-3	-476.378E-3	-186.648E-3	40.0463E-12	-1.54747E+0	23.7532E-3
-488.189E-3	-7.21747E-12	-488.417E-3	-488.189E-3	69.4879E-3	39.9787E-12	-1.48032E+0	24.6327E-3
-500.000E-3	-7.53706E-12	-500.254E-3	-500.000E-3	9.73199E-3	39.9941E-12	-1.49708E+0	23.4682E-3
