Experiment	bias spectroscopy	
Date	01.12.2015 07:27:03	
User		
X (m)	281.337E-9	
Y (m)	-137.817E-9	
Z (m)	-4.07703E-9	
Z offset (m)	0E+0	
Settling time (s)	30E-3	
Integration time (s)	200E-3	
Z-Ctrl hold	TRUE	
Final Z (m)	-4.07703E-9	
Filter type	None	
Order		
Cutoff frq		
Current (A)	15.3337E-12	
Z (m)	-4.07703E-9	
Phase (deg)	-258.815E-3	
Amplitude (m)	40.338E-12	
Frequency Shift (Hz)	-1.14712E+0	
Excitation (V)	13.0049E-3	

[DATA]
Bias calc (V)	Current (A)	Applied Voltage measured (V)	Bias (V)	Phase (deg)	Amplitude (m)	Frequency Shift (Hz)	Excitation (V)
1.00000E+0	15.4681E-12	999.338E-3	1.00000E+0	-87.0966E-3	40.0137E-12	-1.12514E+0	27.2339E-3
988.189E-3	15.3941E-12	987.539E-3	988.189E-3	-17.4434E-3	39.9966E-12	-1.09805E+0	25.3648E-3
976.378E-3	15.2668E-12	975.774E-3	976.378E-3	54.3072E-3	40.0278E-12	-1.07206E+0	24.6917E-3
964.567E-3	14.9348E-12	963.906E-3	964.567E-3	49.2322E-3	40.0039E-12	-1.04628E+0	23.4072E-3
952.756E-3	14.8653E-12	952.155E-3	952.756E-3	-39.9508E-3	39.9314E-12	-1.09564E+0	28.2275E-3
940.945E-3	14.8322E-12	940.309E-3	940.945E-3	59.1020E-3	40.0644E-12	-1.05791E+0	24.3209E-3
929.134E-3	14.7043E-12	928.498E-3	929.134E-3	-24.1147E-3	39.9768E-12	-1.05660E+0	26.5585E-3
917.323E-3	14.5444E-12	916.744E-3	917.323E-3	5.37147E-3	39.9773E-12	-1.05163E+0	27.2854E-3
905.512E-3	14.4238E-12	904.888E-3	905.512E-3	-118.838E-3	40.0343E-12	-1.08187E+0	23.5634E-3
893.701E-3	14.2784E-12	893.124E-3	893.701E-3	43.0271E-3	40.0173E-12	-1.04412E+0	25.3017E-3
881.890E-3	14.2563E-12	881.286E-3	881.890E-3	114.031E-3	40.0040E-12	-1.00190E+0	24.7574E-3
870.079E-3	13.9953E-12	869.487E-3	870.079E-3	349.704E-6	39.9707E-12	-1.02176E+0	27.9211E-3
858.268E-3	13.9415E-12	857.664E-3	858.268E-3	-40.2969E-3	40.0376E-12	-1.03778E+0	23.5927E-3
846.457E-3	13.7378E-12	845.838E-3	846.457E-3	-47.9915E-3	39.9962E-12	-1.01031E+0	25.9152E-3
834.646E-3	13.7196E-12	834.058E-3	834.646E-3	47.8472E-3	39.9931E-12	-979.815E-3	24.2963E-3
822.835E-3	13.3919E-12	822.239E-3	822.835E-3	829.369E-6	40.0025E-12	-1.00676E+0	26.5509E-3
811.024E-3	13.4594E-12	810.418E-3	811.024E-3	2.73085E-3	40.0525E-12	-1.00185E+0	23.8631E-3
799.213E-3	13.1677E-12	798.651E-3	799.213E-3	157.315E-3	39.9637E-12	-941.544E-3	25.7258E-3
787.402E-3	12.9806E-12	786.808E-3	787.402E-3	9.08263E-3	39.9826E-12	-966.111E-3	27.3767E-3
775.591E-3	12.7350E-12	775.021E-3	775.591E-3	18.1680E-3	39.9043E-12	-962.912E-3	30.1319E-3
763.780E-3	12.7219E-12	763.192E-3	763.780E-3	88.3516E-3	40.0271E-12	-943.744E-3	26.8866E-3
751.969E-3	12.5156E-12	751.416E-3	751.969E-3	-169.692E-3	40.0949E-12	-1.00901E+0	24.8628E-3
740.157E-3	12.3439E-12	739.615E-3	740.157E-3	-115.060E-3	39.9743E-12	-1.00840E+0	28.2563E-3
728.346E-3	12.1320E-12	727.783E-3	728.346E-3	3.85130E-3	39.9631E-12	-1.01342E+0	25.9794E-3
716.535E-3	12.1795E-12	716.002E-3	716.535E-3	271.968E-3	39.9715E-12	-914.362E-3	26.6800E-3
704.724E-3	11.9533E-12	704.307E-3	704.724E-3	-8.10002E-3	40.0023E-12	-960.945E-3	26.8566E-3
692.913E-3	11.6922E-12	692.517E-3	692.913E-3	32.1623E-3	39.9738E-12	-958.617E-3	27.3938E-3
681.102E-3	11.5510E-12	680.743E-3	681.102E-3	22.1833E-3	39.9607E-12	-938.047E-3	27.1754E-3
669.291E-3	11.4681E-12	668.929E-3	669.291E-3	-84.7825E-3	40.0496E-12	-985.702E-3	26.8634E-3
657.480E-3	11.3921E-12	657.090E-3	657.480E-3	101.063E-3	39.9891E-12	-936.698E-3	26.2244E-3
645.669E-3	11.0945E-12	645.285E-3	645.669E-3	-8.43107E-3	40.0341E-12	-968.543E-3	25.8750E-3
633.858E-3	11.1247E-12	633.476E-3	633.858E-3	-28.0285E-3	40.0232E-12	-976.508E-3	23.8752E-3
622.047E-3	10.9088E-12	621.668E-3	622.047E-3	62.8417E-3	39.9779E-12	-937.291E-3	26.2146E-3
610.236E-3	10.6719E-12	609.900E-3	610.236E-3	-103.894E-3	39.9453E-12	-989.241E-3	26.9656E-3
598.425E-3	10.5034E-12	598.089E-3	598.425E-3	123.759E-3	39.9677E-12	-913.142E-3	27.7393E-3
586.614E-3	10.4139E-12	586.284E-3	586.614E-3	70.9668E-3	40.0159E-12	-924.516E-3	25.8586E-3
574.803E-3	10.1490E-12	574.463E-3	574.803E-3	11.1663E-3	39.9585E-12	-907.408E-3	26.0294E-3
562.992E-3	9.99829E-12	562.677E-3	562.992E-3	-10.5164E-3	40.0567E-12	-931.297E-3	24.5767E-3
551.181E-3	9.86539E-12	550.869E-3	551.181E-3	-68.8099E-3	39.9492E-12	-950.890E-3	25.4542E-3
539.370E-3	9.78200E-12	539.007E-3	539.370E-3	112.178E-3	40.0088E-12	-896.892E-3	23.8134E-3
527.559E-3	9.49558E-12	527.222E-3	527.559E-3	-97.2077E-3	39.9965E-12	-979.406E-3	26.7183E-3
515.748E-3	9.36136E-12	515.388E-3	515.748E-3	79.9127E-3	40.0305E-12	-917.382E-3	23.5444E-3
503.937E-3	9.11475E-12	503.598E-3	503.937E-3	-93.3239E-3	40.0030E-12	-945.583E-3	26.3116E-3
492.126E-3	9.01701E-12	491.780E-3	492.126E-3	-197.585E-3	40.0608E-12	-1.00516E+0	22.7511E-3
480.315E-3	8.78340E-12	479.962E-3	480.315E-3	165.073E-3	40.0105E-12	-888.255E-3	26.6410E-3
468.504E-3	8.48074E-12	468.168E-3	468.504E-3	-19.9191E-3	40.0492E-12	-947.379E-3	22.9477E-3
456.693E-3	8.44897E-12	456.368E-3	456.693E-3	-148.087E-3	39.9804E-12	-997.891E-3	24.9196E-3
444.882E-3	8.22370E-12	444.599E-3	444.882E-3	151.669E-3	39.9583E-12	-904.156E-3	26.0479E-3
433.071E-3	7.95460E-12	432.763E-3	433.071E-3	-51.3080E-3	39.9863E-12	-952.648E-3	27.0875E-3
421.260E-3	7.89121E-12	420.954E-3	421.260E-3	126.294E-3	39.9905E-12	-888.151E-3	24.9146E-3
409.449E-3	7.69346E-12	409.169E-3	409.449E-3	35.5660E-3	39.9999E-12	-898.111E-3	26.0851E-3
397.638E-3	7.53933E-12	397.317E-3	397.638E-3	41.2010E-3	40.0420E-12	-912.408E-3	28.5696E-3
385.827E-3	7.30882E-12	385.566E-3	385.827E-3	-145.985E-3	39.9307E-12	-973.704E-3	23.9513E-3
374.016E-3	7.08472E-12	373.721E-3	374.016E-3	29.2716E-3	39.9542E-12	-939.198E-3	28.0708E-3
362.205E-3	6.88533E-12	361.917E-3	362.205E-3	-53.6915E-3	39.9861E-12	-985.118E-3	28.6015E-3
350.394E-3	6.74750E-12	350.168E-3	350.394E-3	37.8047E-3	39.9450E-12	-958.619E-3	27.7121E-3
338.583E-3	6.57276E-12	338.317E-3	338.583E-3	-31.0546E-3	40.0261E-12	-969.913E-3	23.9017E-3
326.772E-3	6.36753E-12	326.524E-3	326.772E-3	119.216E-3	39.9767E-12	-927.688E-3	24.5086E-3
314.961E-3	6.24959E-12	314.695E-3	314.961E-3	19.7019E-3	40.0481E-12	-948.610E-3	23.5828E-3
303.150E-3	6.05842E-12	302.874E-3	303.150E-3	-20.3789E-3	39.9839E-12	-952.455E-3	26.7299E-3
291.339E-3	5.85550E-12	291.115E-3	291.339E-3	93.8832E-3	39.9386E-12	-921.847E-3	29.0052E-3
279.528E-3	5.73988E-12	279.290E-3	279.528E-3	-46.3480E-3	39.9976E-12	-957.794E-3	26.1125E-3
267.717E-3	5.53977E-12	267.481E-3	267.717E-3	-160.982E-3	39.9388E-12	-1.01340E+0	30.7218E-3
255.906E-3	5.38578E-12	255.653E-3	255.906E-3	-16.3511E-3	40.0969E-12	-982.615E-3	22.9698E-3
244.094E-3	5.09031E-12	243.882E-3	244.094E-3	156.386E-3	39.9036E-12	-907.590E-3	29.9715E-3
232.283E-3	4.89473E-12	232.027E-3	232.283E-3	-150.819E-3	40.0272E-12	-1.00383E+0	25.8723E-3
220.472E-3	4.71837E-12	220.198E-3	220.472E-3	10.2130E-3	40.0240E-12	-976.943E-3	24.1584E-3
208.661E-3	4.54328E-12	208.424E-3	208.661E-3	-30.3080E-3	39.9621E-12	-990.123E-3	25.6098E-3
196.850E-3	4.32494E-12	196.586E-3	196.850E-3	16.2417E-3	40.0341E-12	-978.228E-3	26.0673E-3
185.039E-3	4.06416E-12	184.811E-3	185.039E-3	-158.062E-3	39.9579E-12	-1.04771E+0	27.2555E-3
173.228E-3	3.85172E-12	173.001E-3	173.228E-3	224.402E-3	39.9701E-12	-925.263E-3	27.3592E-3
161.417E-3	3.63118E-12	161.167E-3	161.417E-3	-56.0322E-3	40.0236E-12	-985.588E-3	25.9147E-3
149.606E-3	3.35209E-12	149.343E-3	149.606E-3	-149.488E-3	39.9768E-12	-1.03018E+0	26.4286E-3
137.795E-3	3.15221E-12	137.561E-3	137.795E-3	-8.54790E-3	39.9639E-12	-996.123E-3	27.8698E-3
125.984E-3	2.89447E-12	125.796E-3	125.984E-3	-26.9048E-3	40.0786E-12	-1.02327E+0	24.8599E-3
114.173E-3	2.62605E-12	113.961E-3	114.173E-3	-70.8654E-3	40.0338E-12	-1.05669E+0	22.8966E-3
102.362E-3	2.38154E-12	102.157E-3	102.362E-3	-21.7408E-3	39.9563E-12	-1.04895E+0	27.3651E-3
90.5512E-3	2.12641E-12	90.3436E-3	90.5512E-3	95.5523E-3	40.0658E-12	-1.01688E+0	26.0278E-3
78.7402E-3	1.84595E-12	78.5113E-3	78.7402E-3	66.9628E-3	39.9472E-12	-1.02538E+0	25.7877E-3
66.9291E-3	1.54781E-12	66.6444E-3	66.9291E-3	3.22868E-3	40.0565E-12	-1.05355E+0	25.8096E-3
55.1181E-3	1.26078E-12	54.8674E-3	55.1181E-3	-16.3564E-3	39.9580E-12	-1.04779E+0	26.3442E-3
43.3071E-3	968.564E-15	43.0449E-3	43.3071E-3	76.9455E-3	40.0322E-12	-1.03927E+0	26.0207E-3
31.4961E-3	684.625E-15	31.2214E-3	31.4961E-3	-16.7918E-3	39.9930E-12	-1.05349E+0	27.0624E-3
19.6850E-3	396.100E-15	19.4277E-3	19.6850E-3	-83.7752E-3	40.0835E-12	-1.11169E+0	23.7747E-3
7.87402E-3	99.0801E-15	7.57625E-3	7.87402E-3	-71.5360E-3	39.9685E-12	-1.11263E+0	27.5442E-3
-3.93701E-3	-219.927E-15	-4.30966E-3	-3.93701E-3	83.1468E-3	40.0218E-12	-1.06715E+0	27.1878E-3
-15.7480E-3	-553.088E-15	-16.0952E-3	-15.7480E-3	37.9097E-3	40.0116E-12	-1.07628E+0	24.2964E-3
-27.5591E-3	-852.079E-15	-27.9058E-3	-27.5591E-3	-184.934E-3	39.9531E-12	-1.15097E+0	26.6972E-3
-39.3701E-3	-1.13539E-12	-39.6748E-3	-39.3701E-3	8.05567E-3	40.0053E-12	-1.12603E+0	26.8258E-3
-51.1811E-3	-1.44134E-12	-51.5242E-3	-51.1811E-3	21.0320E-3	39.9243E-12	-1.10566E+0	28.0889E-3
-62.9921E-3	-1.73711E-12	-63.2932E-3	-62.9921E-3	-4.46494E-3	40.0580E-12	-1.10108E+0	24.2965E-3
-74.8032E-3	-1.95892E-12	-75.1329E-3	-74.8032E-3	-146.065E-3	39.9700E-12	-1.17592E+0	28.2674E-3
-86.6142E-3	-2.06090E-12	-86.9991E-3	-86.6142E-3	99.5780E-3	40.0068E-12	-1.10102E+0	25.2563E-3
-98.4252E-3	-2.17683E-12	-98.7769E-3	-98.4252E-3	-61.2262E-3	39.9321E-12	-1.14711E+0	27.0403E-3
-110.236E-3	-2.30548E-12	-110.626E-3	-110.236E-3	-97.1039E-3	40.0341E-12	-1.18005E+0	26.7427E-3
-122.047E-3	-2.44190E-12	-122.369E-3	-122.047E-3	-46.9909E-3	40.0105E-12	-1.17592E+0	25.9287E-3
-133.858E-3	-2.58988E-12	-134.220E-3	-133.858E-3	-9.28981E-3	39.9709E-12	-1.18280E+0	26.4647E-3
-145.669E-3	-2.74342E-12	-146.022E-3	-145.669E-3	-107.740E-3	40.0328E-12	-1.22969E+0	25.5132E-3
-157.480E-3	-2.88541E-12	-157.793E-3	-157.480E-3	-43.3685E-3	40.0304E-12	-1.20393E+0	24.0417E-3
-169.291E-3	-3.01918E-12	-169.667E-3	-169.291E-3	41.5017E-3	39.9649E-12	-1.19446E+0	28.4319E-3
-181.102E-3	-3.13858E-12	-181.410E-3	-181.102E-3	-94.6746E-3	40.0295E-12	-1.24864E+0	23.4088E-3
-192.913E-3	-3.26697E-12	-193.220E-3	-192.913E-3	11.7135E-3	39.8942E-12	-1.22185E+0	27.3321E-3
-204.724E-3	-3.41483E-12	-205.050E-3	-204.724E-3	-65.0126E-3	40.0826E-12	-1.24505E+0	23.7554E-3
-216.535E-3	-3.55665E-12	-216.850E-3	-216.535E-3	-85.0985E-3	39.9585E-12	-1.27572E+0	27.4594E-3
-228.346E-3	-3.64834E-12	-228.677E-3	-228.346E-3	-33.3055E-3	39.9660E-12	-1.25148E+0	29.7564E-3
-240.157E-3	-3.83776E-12	-240.472E-3	-240.157E-3	-52.5342E-3	40.0388E-12	-1.25843E+0	27.2970E-3
-251.969E-3	-3.96206E-12	-252.296E-3	-251.969E-3	11.5735E-3	39.9307E-12	-1.25924E+0	28.3582E-3
-263.780E-3	-4.19899E-12	-264.066E-3	-263.780E-3	-107.411E-3	40.0251E-12	-1.28241E+0	25.8276E-3
-275.591E-3	-4.30931E-12	-275.874E-3	-275.591E-3	-112.807E-3	40.0027E-12	-1.29829E+0	27.2394E-3
-287.402E-3	-4.49544E-12	-287.705E-3	-287.402E-3	-12.6809E-3	40.0671E-12	-1.29093E+0	27.2320E-3
-299.213E-3	-4.57461E-12	-299.497E-3	-299.213E-3	55.4854E-3	39.9301E-12	-1.26195E+0	27.9275E-3
-311.024E-3	-4.70319E-12	-311.328E-3	-311.024E-3	-44.1740E-3	40.0035E-12	-1.30655E+0	24.3509E-3
-322.835E-3	-4.91304E-12	-323.121E-3	-322.835E-3	40.5854E-3	40.0185E-12	-1.29147E+0	25.9635E-3
-334.646E-3	-4.94857E-12	-334.892E-3	-334.646E-3	-18.1880E-3	40.0176E-12	-1.29941E+0	23.1486E-3
-346.457E-3	-5.08160E-12	-346.711E-3	-346.457E-3	-214.950E-3	40.0232E-12	-1.38044E+0	26.7138E-3
-358.268E-3	-5.19888E-12	-358.550E-3	-358.268E-3	-25.2217E-3	39.9386E-12	-1.34787E+0	26.3759E-3
-370.079E-3	-5.30517E-12	-370.353E-3	-370.079E-3	-11.1489E-3	40.0056E-12	-1.35238E+0	25.9544E-3
-381.890E-3	-5.48830E-12	-382.125E-3	-381.890E-3	3.59099E-3	40.0604E-12	-1.34438E+0	22.0733E-3
-393.701E-3	-5.58828E-12	-393.996E-3	-393.701E-3	1.68256E-3	39.9419E-12	-1.36306E+0	28.9625E-3
-405.512E-3	-5.68675E-12	-405.803E-3	-405.512E-3	-121.625E-3	40.0491E-12	-1.44051E+0	27.1344E-3
-417.323E-3	-5.89213E-12	-417.605E-3	-417.323E-3	35.2385E-3	40.0530E-12	-1.41209E+0	25.6858E-3
-429.134E-3	-6.01927E-12	-429.414E-3	-429.134E-3	122.753E-3	40.0104E-12	-1.39806E+0	27.9349E-3
-440.945E-3	-6.15884E-12	-441.212E-3	-440.945E-3	-96.4163E-3	39.9706E-12	-1.44879E+0	30.4632E-3
-452.756E-3	-6.30873E-12	-453.021E-3	-452.756E-3	-20.4019E-3	39.9766E-12	-1.45287E+0	29.0456E-3
-464.567E-3	-6.61756E-12	-464.850E-3	-464.567E-3	-72.4581E-3	40.0646E-12	-1.48586E+0	26.9985E-3
-476.378E-3	-6.91836E-12	-476.672E-3	-476.378E-3	87.8686E-3	40.0276E-12	-1.45123E+0	25.6661E-3
-488.189E-3	-7.16845E-12	-488.389E-3	-488.189E-3	-38.4099E-3	39.9440E-12	-1.51278E+0	29.2932E-3
-500.000E-3	-7.46550E-12	-500.230E-3	-500.000E-3	3.23950E-3	39.9839E-12	-1.50970E+0	26.4319E-3
