Experiment	bias spectroscopy	
Date	01.12.2015 03:28:53	
User		
X (m)	281.026E-9	
Y (m)	-138.882E-9	
Z (m)	-4.07703E-9	
Z offset (m)	0E+0	
Settling time (s)	30E-3	
Integration time (s)	200E-3	
Z-Ctrl hold	TRUE	
Final Z (m)	-4.07703E-9	
Filter type	None	
Order		
Cutoff frq		
Current (A)	63.6361E-12	
Z (m)	-4.07703E-9	
Phase (deg)	-199.711E-3	
Amplitude (m)	39.8554E-12	
Frequency Shift (Hz)	-1.14013E+0	
Excitation (V)	33.8055E-3	

[DATA]
Bias calc (V)	Current (A)	Applied Voltage measured (V)	Bias (V)	Phase (deg)	Amplitude (m)	Frequency Shift (Hz)	Excitation (V)
1.00000E+0	62.9781E-12	999.342E-3	1.00000E+0	-69.8615E-3	39.9512E-12	-1.11790E+0	24.3430E-3
988.189E-3	62.6163E-12	987.538E-3	988.189E-3	16.7680E-3	40.1341E-12	-1.07193E+0	19.1625E-3
976.378E-3	61.8682E-12	975.772E-3	976.378E-3	21.9750E-3	39.9732E-12	-1.08470E+0	23.9703E-3
964.567E-3	61.0480E-12	963.902E-3	964.567E-3	-115.421E-3	39.9756E-12	-1.12608E+0	24.9214E-3
952.756E-3	60.4112E-12	952.150E-3	952.756E-3	59.0831E-3	40.0607E-12	-1.07282E+0	23.1299E-3
940.945E-3	59.2430E-12	940.318E-3	940.945E-3	-108.247E-3	39.9346E-12	-1.11388E+0	25.2560E-3
929.134E-3	58.6445E-12	928.496E-3	929.134E-3	77.5225E-3	40.0539E-12	-1.06483E+0	23.6152E-3
917.323E-3	58.2482E-12	916.742E-3	917.323E-3	86.1260E-3	40.0128E-12	-1.01707E+0	25.2792E-3
905.512E-3	57.5930E-12	904.884E-3	905.512E-3	140.897E-3	40.0180E-12	-991.547E-3	23.0541E-3
893.701E-3	56.2536E-12	893.121E-3	893.701E-3	12.6798E-3	40.0231E-12	-1.01653E+0	24.5624E-3
881.890E-3	55.4760E-12	881.288E-3	881.890E-3	-28.7461E-3	39.9366E-12	-1.06249E+0	27.3480E-3
870.079E-3	54.6956E-12	869.473E-3	870.079E-3	-47.1128E-3	40.0519E-12	-1.07343E+0	23.0498E-3
858.268E-3	54.4758E-12	857.650E-3	858.268E-3	-14.8004E-3	40.0144E-12	-1.04960E+0	25.3258E-3
846.457E-3	53.5978E-12	845.821E-3	846.457E-3	75.0214E-3	39.9346E-12	-1.03185E+0	24.0528E-3
834.646E-3	52.7871E-12	834.042E-3	834.646E-3	-24.3351E-3	40.0402E-12	-1.04123E+0	27.6388E-3
822.835E-3	51.8011E-12	822.235E-3	822.835E-3	82.4644E-3	40.0669E-12	-1.01086E+0	20.8391E-3
811.024E-3	51.0640E-12	810.407E-3	811.024E-3	87.9017E-3	39.9176E-12	-1.01337E+0	26.7047E-3
799.213E-3	50.5066E-12	798.637E-3	799.213E-3	26.9114E-3	40.0102E-12	-1.00468E+0	25.9806E-3
787.402E-3	49.6429E-12	786.812E-3	787.402E-3	-49.0062E-3	40.0733E-12	-1.03019E+0	22.3548E-3
775.591E-3	48.2796E-12	775.029E-3	775.591E-3	-135.154E-3	39.9952E-12	-1.06182E+0	24.4207E-3
763.780E-3	48.1658E-12	763.189E-3	763.780E-3	12.9503E-3	39.9965E-12	-1.02672E+0	21.9829E-3
751.969E-3	47.8913E-12	751.422E-3	751.969E-3	107.418E-3	39.9520E-12	-998.972E-3	26.2931E-3
740.157E-3	46.6096E-12	739.617E-3	740.157E-3	199.314E-3	40.0310E-12	-920.865E-3	22.8618E-3
728.346E-3	45.9023E-12	727.772E-3	728.346E-3	-68.0003E-3	40.0063E-12	-1.01739E+0	26.1720E-3
716.535E-3	44.9278E-12	715.984E-3	716.535E-3	-162.153E-3	39.9769E-12	-1.06392E+0	24.9799E-3
704.724E-3	44.4411E-12	704.294E-3	704.724E-3	32.4511E-3	40.0373E-12	-1.01395E+0	24.2588E-3
692.913E-3	43.7475E-12	692.497E-3	692.913E-3	5.95038E-3	40.0048E-12	-1.03085E+0	24.7661E-3
681.102E-3	42.8763E-12	680.718E-3	681.102E-3	173.151E-3	40.0245E-12	-962.729E-3	26.6844E-3
669.291E-3	42.1128E-12	668.904E-3	669.291E-3	112.529E-3	39.9632E-12	-964.215E-3	28.0051E-3
657.480E-3	41.4635E-12	657.063E-3	657.480E-3	-78.9077E-3	40.0183E-12	-1.03529E+0	25.7695E-3
645.669E-3	40.4792E-12	645.263E-3	645.669E-3	58.9043E-3	40.0199E-12	-968.621E-3	25.9018E-3
633.858E-3	40.0426E-12	633.458E-3	633.858E-3	-46.7841E-3	39.9617E-12	-1.01186E+0	26.3797E-3
622.047E-3	39.3066E-12	621.656E-3	622.047E-3	-59.6682E-3	40.0695E-12	-1.03035E+0	22.5377E-3
610.236E-3	38.4995E-12	609.889E-3	610.236E-3	151.364E-3	39.8920E-12	-985.721E-3	28.2429E-3
598.425E-3	37.3244E-12	598.084E-3	598.425E-3	39.5395E-3	40.0303E-12	-1.02081E+0	23.7455E-3
586.614E-3	36.6557E-12	586.269E-3	586.614E-3	-63.7477E-3	40.0442E-12	-1.04756E+0	20.9545E-3
574.803E-3	35.9322E-12	574.447E-3	574.803E-3	110.213E-3	39.9464E-12	-987.685E-3	26.4791E-3
562.992E-3	35.1105E-12	562.676E-3	562.992E-3	-43.4951E-3	39.9420E-12	-1.02043E+0	24.4259E-3
551.181E-3	34.5896E-12	550.860E-3	551.181E-3	171.272E-3	39.9663E-12	-955.103E-3	27.4552E-3
539.370E-3	33.7003E-12	538.997E-3	539.370E-3	-26.4752E-3	39.9300E-12	-1.00604E+0	32.1774E-3
527.559E-3	32.9844E-12	527.211E-3	527.559E-3	118.700E-3	40.0198E-12	-968.033E-3	26.4635E-3
515.748E-3	32.0936E-12	515.375E-3	515.748E-3	-14.7745E-3	40.0394E-12	-996.690E-3	23.5710E-3
503.937E-3	31.1858E-12	503.583E-3	503.937E-3	-34.0577E-3	40.0431E-12	-1.02232E+0	23.2975E-3
492.126E-3	30.4020E-12	491.753E-3	492.126E-3	101.253E-3	40.0221E-12	-982.243E-3	24.6201E-3
480.315E-3	29.7717E-12	479.948E-3	480.315E-3	-100.503E-3	39.9766E-12	-1.04653E+0	22.2859E-3
468.504E-3	28.8648E-12	468.151E-3	468.504E-3	-113.030E-3	40.0310E-12	-1.06805E+0	23.6849E-3
456.693E-3	27.9291E-12	456.347E-3	456.693E-3	207.064E-3	39.9401E-12	-969.001E-3	25.3484E-3
444.882E-3	26.9888E-12	444.578E-3	444.882E-3	-16.2982E-3	39.8760E-12	-1.02710E+0	25.9135E-3
433.071E-3	26.4422E-12	432.742E-3	433.071E-3	-48.5584E-3	40.0560E-12	-1.05381E+0	22.7519E-3
421.260E-3	25.6783E-12	420.929E-3	421.260E-3	-19.5500E-3	40.0229E-12	-1.05836E+0	28.2611E-3
409.449E-3	24.8261E-12	409.146E-3	409.449E-3	-22.7430E-3	39.9758E-12	-1.05572E+0	25.6625E-3
397.638E-3	24.1035E-12	397.298E-3	397.638E-3	88.7556E-3	39.9834E-12	-1.00078E+0	24.7163E-3
385.827E-3	23.1715E-12	385.544E-3	385.827E-3	-11.8746E-3	40.0224E-12	-1.05151E+0	25.5183E-3
374.016E-3	22.6251E-12	373.698E-3	374.016E-3	-3.00211E-3	39.9770E-12	-1.06059E+0	27.6703E-3
362.205E-3	21.7553E-12	361.890E-3	362.205E-3	146.736E-3	39.9851E-12	-995.272E-3	24.2604E-3
350.394E-3	21.1727E-12	350.140E-3	350.394E-3	48.7146E-3	40.0329E-12	-993.805E-3	29.6028E-3
338.583E-3	20.3234E-12	338.294E-3	338.583E-3	-83.5723E-3	40.0645E-12	-1.03362E+0	25.0542E-3
326.772E-3	19.5442E-12	326.505E-3	326.772E-3	-174.141E-3	40.0181E-12	-1.09491E+0	24.1017E-3
314.961E-3	18.7536E-12	314.669E-3	314.961E-3	-9.94349E-3	40.0155E-12	-1.06611E+0	26.7355E-3
303.150E-3	18.0006E-12	302.848E-3	303.150E-3	65.3163E-3	39.9464E-12	-1.01901E+0	24.9462E-3
291.339E-3	17.5043E-12	291.093E-3	291.339E-3	11.5348E-3	40.0771E-12	-1.03222E+0	24.2494E-3
279.528E-3	16.4768E-12	279.261E-3	279.528E-3	-111.491E-3	39.9743E-12	-1.09293E+0	24.9961E-3
267.717E-3	15.6126E-12	267.452E-3	267.717E-3	-8.30257E-3	40.0354E-12	-1.08950E+0	25.9135E-3
255.906E-3	15.0353E-12	255.638E-3	255.906E-3	40.7569E-3	40.0593E-12	-1.04587E+0	23.8286E-3
244.094E-3	14.2179E-12	243.864E-3	244.094E-3	70.3223E-3	39.9347E-12	-1.04947E+0	25.0831E-3
232.283E-3	13.5432E-12	232.003E-3	232.283E-3	-207.632E-3	39.9727E-12	-1.13962E+0	27.0848E-3
220.472E-3	12.7399E-12	220.175E-3	220.472E-3	35.5550E-3	40.0380E-12	-1.07568E+0	24.5677E-3
208.661E-3	12.0998E-12	208.394E-3	208.661E-3	-19.7139E-3	39.9843E-12	-1.08773E+0	26.7971E-3
196.850E-3	11.3137E-12	196.559E-3	196.850E-3	-98.5049E-3	39.9719E-12	-1.15256E+0	25.0718E-3
185.039E-3	10.5997E-12	184.791E-3	185.039E-3	143.275E-3	39.9965E-12	-1.05293E+0	24.5303E-3
173.228E-3	9.95244E-12	172.968E-3	173.228E-3	-46.2613E-3	39.9992E-12	-1.11633E+0	26.0579E-3
161.417E-3	9.14805E-12	161.142E-3	161.417E-3	2.81500E-3	39.9590E-12	-1.11729E+0	26.2224E-3
149.606E-3	8.51904E-12	149.332E-3	149.606E-3	51.4811E-3	40.0489E-12	-1.08788E+0	26.2662E-3
137.795E-3	7.76877E-12	137.541E-3	137.795E-3	-95.1485E-3	39.9655E-12	-1.12527E+0	28.0320E-3
125.984E-3	7.19388E-12	125.772E-3	125.984E-3	-159.553E-3	40.0338E-12	-1.17038E+0	25.5140E-3
114.173E-3	6.33128E-12	113.937E-3	114.173E-3	3.56213E-3	39.9763E-12	-1.13513E+0	23.9096E-3
102.362E-3	5.81379E-12	102.136E-3	102.362E-3	58.6408E-3	40.0943E-12	-1.10738E+0	26.2231E-3
90.5512E-3	5.07195E-12	90.3300E-3	90.5512E-3	-28.9993E-3	40.0157E-12	-1.14576E+0	26.0897E-3
78.7402E-3	4.38830E-12	78.4927E-3	78.7402E-3	-19.0289E-3	39.9869E-12	-1.14272E+0	28.6204E-3
66.9291E-3	3.71795E-12	66.6224E-3	66.9291E-3	17.1257E-3	39.9771E-12	-1.14014E+0	26.9768E-3
55.1181E-3	3.08350E-12	54.8486E-3	55.1181E-3	33.4031E-3	39.9812E-12	-1.14309E+0	25.1372E-3
43.3071E-3	2.37838E-12	43.0225E-3	43.3071E-3	-40.7428E-3	39.9742E-12	-1.18443E+0	28.8912E-3
31.4961E-3	1.68649E-12	31.1990E-3	31.4961E-3	-42.9641E-3	40.0649E-12	-1.20165E+0	25.0815E-3
19.6850E-3	1.02540E-12	19.4030E-3	19.6850E-3	77.8048E-3	40.0269E-12	-1.16470E+0	24.5719E-3
7.87402E-3	375.384E-15	7.55236E-3	7.87402E-3	-13.4901E-3	39.9767E-12	-1.20924E+0	25.0423E-3
-3.93701E-3	-331.094E-15	-4.33995E-3	-3.93701E-3	22.2115E-3	40.0433E-12	-1.18831E+0	22.6516E-3
-15.7480E-3	-1.06658E-12	-16.1186E-3	-15.7480E-3	-68.8103E-3	39.9805E-12	-1.22862E+0	27.1842E-3
-27.5591E-3	-1.77006E-12	-27.9335E-3	-27.5591E-3	-10.5497E-3	39.9396E-12	-1.24457E+0	28.2478E-3
-39.3701E-3	-2.50873E-12	-39.6983E-3	-39.3701E-3	-43.9086E-3	40.0202E-12	-1.24994E+0	28.2791E-3
-51.1811E-3	-3.27543E-12	-51.5600E-3	-51.1811E-3	-214.634E-3	40.0882E-12	-1.31817E+0	22.9499E-3
-62.9921E-3	-3.93878E-12	-63.3244E-3	-62.9921E-3	157.980E-3	39.9888E-12	-1.21330E+0	24.5839E-3
-74.8032E-3	-4.44835E-12	-75.1670E-3	-74.8032E-3	28.4495E-3	40.0513E-12	-1.24417E+0	25.6680E-3
-86.6142E-3	-4.75274E-12	-87.0197E-3	-86.6142E-3	79.5600E-3	39.9644E-12	-1.25122E+0	26.5169E-3
-98.4252E-3	-5.09133E-12	-98.7922E-3	-98.4252E-3	-71.9395E-3	39.9659E-12	-1.28774E+0	28.2040E-3
-110.236E-3	-5.46565E-12	-110.655E-3	-110.236E-3	64.6905E-3	40.0193E-12	-1.26079E+0	26.9825E-3
-122.047E-3	-5.86701E-12	-122.399E-3	-122.047E-3	4.59587E-3	40.0315E-12	-1.27982E+0	22.0756E-3
-133.858E-3	-6.30767E-12	-134.252E-3	-133.858E-3	60.9454E-3	39.9138E-12	-1.25912E+0	29.7938E-3
-145.669E-3	-6.76087E-12	-146.053E-3	-145.669E-3	-63.1272E-3	39.9490E-12	-1.31243E+0	29.1112E-3
-157.480E-3	-7.27575E-12	-157.834E-3	-157.480E-3	-238.274E-3	40.0194E-12	-1.37459E+0	28.0169E-3
-169.291E-3	-7.75893E-12	-169.698E-3	-169.291E-3	93.4206E-3	39.9936E-12	-1.31303E+0	25.1439E-3
-181.102E-3	-8.10485E-12	-181.439E-3	-181.102E-3	-74.6056E-3	40.0327E-12	-1.35127E+0	26.0645E-3
-192.913E-3	-8.56512E-12	-193.254E-3	-192.913E-3	-53.0387E-3	39.9438E-12	-1.36991E+0	26.9601E-3
-204.724E-3	-9.10355E-12	-205.085E-3	-204.724E-3	-124.442E-3	40.0675E-12	-1.40104E+0	26.9211E-3
-216.535E-3	-9.61550E-12	-216.884E-3	-216.535E-3	-21.8201E-3	40.0030E-12	-1.39911E+0	27.0825E-3
-228.346E-3	-9.87233E-12	-228.698E-3	-228.346E-3	63.8394E-3	39.9909E-12	-1.36302E+0	25.0363E-3
-240.157E-3	-10.4056E-12	-240.505E-3	-240.157E-3	-87.5531E-3	39.9367E-12	-1.42267E+0	28.6442E-3
-251.969E-3	-10.9464E-12	-252.326E-3	-251.969E-3	-39.3188E-3	39.9972E-12	-1.40001E+0	25.3590E-3
-263.780E-3	-11.4571E-12	-264.093E-3	-263.780E-3	68.6571E-3	40.0640E-12	-1.39924E+0	23.7918E-3
-275.591E-3	-12.1761E-12	-275.899E-3	-275.591E-3	-51.0913E-3	40.0496E-12	-1.43504E+0	23.4833E-3
-287.402E-3	-12.5630E-12	-287.734E-3	-287.402E-3	16.8465E-3	39.9422E-12	-1.41807E+0	26.3886E-3
-299.213E-3	-13.2671E-12	-299.517E-3	-299.213E-3	-199.997E-3	40.0409E-12	-1.48839E+0	24.3958E-3
-311.024E-3	-13.7345E-12	-311.350E-3	-311.024E-3	-91.0224E-3	40.0404E-12	-1.48351E+0	25.5898E-3
-322.835E-3	-14.1473E-12	-323.150E-3	-322.835E-3	50.4198E-3	39.9763E-12	-1.43968E+0	27.6484E-3
-334.646E-3	-14.6885E-12	-334.925E-3	-334.646E-3	25.9146E-3	39.9890E-12	-1.43437E+0	25.8647E-3
-346.457E-3	-15.2326E-12	-346.740E-3	-346.457E-3	-197.332E-3	39.9965E-12	-1.50990E+0	26.7495E-3
-358.268E-3	-15.8549E-12	-358.582E-3	-358.268E-3	-18.0321E-3	39.9839E-12	-1.49591E+0	28.0140E-3
-370.079E-3	-16.3215E-12	-370.378E-3	-370.079E-3	124.165E-3	39.9959E-12	-1.45463E+0	26.1353E-3
-381.890E-3	-16.9393E-12	-382.149E-3	-381.890E-3	-111.190E-3	40.0009E-12	-1.52974E+0	25.8578E-3
-393.701E-3	-17.4108E-12	-394.021E-3	-393.701E-3	-141.424E-3	39.9502E-12	-1.57620E+0	27.0130E-3
-405.512E-3	-17.9214E-12	-405.831E-3	-405.512E-3	48.6945E-3	40.0241E-12	-1.55393E+0	27.6162E-3
-417.323E-3	-18.6835E-12	-417.629E-3	-417.323E-3	-93.2118E-3	40.0153E-12	-1.58870E+0	24.2336E-3
-429.134E-3	-19.3374E-12	-429.427E-3	-429.134E-3	22.3049E-3	40.0615E-12	-1.57918E+0	23.7840E-3
-440.945E-3	-19.9969E-12	-441.226E-3	-440.945E-3	-151.794E-3	39.9431E-12	-1.65588E+0	27.5056E-3
-452.756E-3	-21.0936E-12	-453.041E-3	-452.756E-3	62.5138E-3	40.0618E-12	-1.60697E+0	27.2018E-3
-464.567E-3	-21.8246E-12	-464.869E-3	-464.567E-3	-49.7401E-3	40.0353E-12	-1.65459E+0	27.3530E-3
-476.378E-3	-22.6792E-12	-476.688E-3	-476.378E-3	-52.3776E-3	39.9547E-12	-1.65246E+0	27.0852E-3
-488.189E-3	-23.7473E-12	-488.412E-3	-488.189E-3	75.8356E-3	40.0055E-12	-1.60962E+0	26.1018E-3
-500.000E-3	-24.5749E-12	-500.251E-3	-500.000E-3	-47.5358E-3	39.9969E-12	-1.66252E+0	26.4629E-3
