Experiment	bias spectroscopy	
Date	01.12.2015 04:26:50	
User		
X (m)	281.614E-9	
Y (m)	-139.254E-9	
Z (m)	-4.07703E-9	
Z offset (m)	0E+0	
Settling time (s)	30E-3	
Integration time (s)	200E-3	
Z-Ctrl hold	TRUE	
Final Z (m)	-4.07703E-9	
Filter type	None	
Order		
Cutoff frq		
Current (A)	15.4934E-12	
Z (m)	-4.07703E-9	
Phase (deg)	361.27E-3	
Amplitude (m)	40.1339E-12	
Frequency Shift (Hz)	-949.736E-3	
Excitation (V)	22.0476E-3	

[DATA]
Bias calc (V)	Current (A)	Applied Voltage measured (V)	Bias (V)	Phase (deg)	Amplitude (m)	Frequency Shift (Hz)	Excitation (V)
1.00000E+0	15.1656E-12	999.330E-3	1.00000E+0	167.870E-3	39.9776E-12	-1.02233E+0	27.1963E-3
988.189E-3	14.9770E-12	987.537E-3	988.189E-3	-147.829E-3	40.0225E-12	-1.11061E+0	25.3305E-3
976.378E-3	14.8921E-12	975.775E-3	976.378E-3	42.6963E-3	40.0150E-12	-1.05801E+0	26.4791E-3
964.567E-3	14.8283E-12	963.911E-3	964.567E-3	79.7380E-3	39.9551E-12	-1.03964E+0	27.8807E-3
952.756E-3	14.5468E-12	952.151E-3	952.756E-3	26.3299E-3	40.0030E-12	-1.05775E+0	25.5714E-3
940.945E-3	14.6538E-12	940.320E-3	940.945E-3	58.9869E-3	39.9979E-12	-1.01343E+0	25.9898E-3
929.134E-3	14.3065E-12	928.501E-3	929.134E-3	55.9572E-3	40.0302E-12	-1.00395E+0	25.0735E-3
917.323E-3	14.1784E-12	916.747E-3	917.323E-3	-23.9980E-3	39.9941E-12	-1.01414E+0	25.4934E-3
905.512E-3	14.1305E-12	904.890E-3	905.512E-3	93.5098E-3	40.0244E-12	-983.348E-3	26.1432E-3
893.701E-3	13.9076E-12	893.131E-3	893.701E-3	-101.138E-3	39.9930E-12	-1.05309E+0	27.6522E-3
881.890E-3	13.8191E-12	881.296E-3	881.890E-3	14.9387E-3	40.0185E-12	-1.01544E+0	24.6123E-3
870.079E-3	13.7519E-12	869.501E-3	870.079E-3	13.9210E-3	40.0395E-12	-1.01022E+0	24.2634E-3
858.268E-3	13.5690E-12	857.675E-3	858.268E-3	77.9667E-3	39.9377E-12	-967.373E-3	24.0898E-3
846.457E-3	13.4930E-12	845.839E-3	846.457E-3	-25.3983E-3	39.9299E-12	-995.763E-3	29.9265E-3
834.646E-3	13.4108E-12	834.063E-3	834.646E-3	-61.1401E-3	40.0679E-12	-1.01217E+0	25.7647E-3
822.835E-3	13.0355E-12	822.251E-3	822.835E-3	-15.8617E-3	39.8847E-12	-995.364E-3	29.3413E-3
811.024E-3	12.9312E-12	810.424E-3	811.024E-3	-144.592E-3	40.0390E-12	-1.02524E+0	25.7530E-3
799.213E-3	12.8764E-12	798.657E-3	799.213E-3	117.661E-3	39.9989E-12	-944.372E-3	25.8972E-3
787.402E-3	12.7835E-12	786.819E-3	787.402E-3	-29.2073E-3	40.0585E-12	-981.401E-3	24.6367E-3
775.591E-3	12.5063E-12	775.031E-3	775.591E-3	-70.5371E-3	39.9409E-12	-983.231E-3	27.8721E-3
763.780E-3	12.4304E-12	763.201E-3	763.780E-3	9.45992E-3	40.0768E-12	-961.613E-3	21.6029E-3
751.969E-3	12.3936E-12	751.430E-3	751.969E-3	4.23424E-3	39.9891E-12	-954.495E-3	26.1241E-3
740.157E-3	12.2935E-12	739.623E-3	740.157E-3	53.4991E-3	40.0357E-12	-928.465E-3	28.0157E-3
728.346E-3	12.0979E-12	727.791E-3	728.346E-3	-73.5831E-3	40.0068E-12	-970.388E-3	25.2333E-3
716.535E-3	11.9960E-12	716.004E-3	716.535E-3	13.7779E-3	39.9955E-12	-955.924E-3	27.9916E-3
704.724E-3	11.8142E-12	704.309E-3	704.724E-3	53.5707E-3	40.0216E-12	-935.985E-3	24.3251E-3
692.913E-3	11.7989E-12	692.512E-3	692.913E-3	32.8986E-3	40.0239E-12	-944.250E-3	25.2753E-3
681.102E-3	11.5941E-12	680.737E-3	681.102E-3	52.5871E-3	40.0106E-12	-925.895E-3	24.6856E-3
669.291E-3	11.3790E-12	668.916E-3	669.291E-3	-77.7284E-3	40.0191E-12	-979.377E-3	25.9292E-3
657.480E-3	11.2028E-12	657.085E-3	657.480E-3	22.7391E-3	40.0454E-12	-929.329E-3	25.2983E-3
645.669E-3	11.0936E-12	645.279E-3	645.669E-3	-2.12433E-3	39.9765E-12	-941.636E-3	24.4651E-3
633.858E-3	10.9401E-12	633.477E-3	633.858E-3	-53.4130E-3	39.9949E-12	-955.059E-3	25.4191E-3
622.047E-3	10.8077E-12	621.679E-3	622.047E-3	-23.5509E-3	40.0211E-12	-953.125E-3	22.7615E-3
610.236E-3	10.6286E-12	609.903E-3	610.236E-3	-13.0539E-3	39.9571E-12	-964.006E-3	26.4406E-3
598.425E-3	10.5077E-12	598.091E-3	598.425E-3	66.0897E-3	39.9790E-12	-931.405E-3	26.4047E-3
586.614E-3	10.3839E-12	586.284E-3	586.614E-3	5.87414E-3	39.9688E-12	-947.868E-3	26.0341E-3
574.803E-3	10.2705E-12	574.466E-3	574.803E-3	54.8520E-3	40.0205E-12	-920.640E-3	24.7483E-3
562.992E-3	10.1394E-12	562.690E-3	562.992E-3	11.5593E-3	39.9788E-12	-920.748E-3	27.0765E-3
551.181E-3	9.96975E-12	550.878E-3	551.181E-3	-58.4790E-3	39.9926E-12	-958.654E-3	28.8545E-3
539.370E-3	9.83967E-12	539.015E-3	539.370E-3	79.7523E-3	40.0879E-12	-902.056E-3	24.4958E-3
527.559E-3	9.59934E-12	527.229E-3	527.559E-3	54.5097E-3	39.8793E-12	-890.586E-3	28.5072E-3
515.748E-3	9.52010E-12	515.400E-3	515.748E-3	-52.2181E-3	39.9866E-12	-921.118E-3	28.3957E-3
503.937E-3	9.44046E-12	503.608E-3	503.937E-3	-43.0288E-3	40.0983E-12	-920.679E-3	21.4059E-3
492.126E-3	9.04588E-12	491.779E-3	492.126E-3	83.9812E-3	40.0494E-12	-885.036E-3	21.5795E-3
480.315E-3	8.85520E-12	479.965E-3	480.315E-3	77.2339E-3	40.0068E-12	-883.300E-3	25.4375E-3
468.504E-3	8.79061E-12	468.172E-3	468.504E-3	-121.444E-3	40.0075E-12	-959.603E-3	24.7127E-3
456.693E-3	8.63096E-12	456.359E-3	456.693E-3	159.398E-3	39.9506E-12	-877.055E-3	26.6587E-3
444.882E-3	8.43119E-12	444.593E-3	444.882E-3	24.1888E-3	39.9928E-12	-908.035E-3	28.3272E-3
433.071E-3	8.22333E-12	432.758E-3	433.071E-3	-148.986E-3	39.9341E-12	-976.660E-3	26.0713E-3
421.260E-3	8.14771E-12	420.955E-3	421.260E-3	74.7492E-3	39.9904E-12	-919.365E-3	27.8056E-3
409.449E-3	7.82099E-12	409.168E-3	409.449E-3	58.5393E-3	39.9485E-12	-899.532E-3	25.8997E-3
397.638E-3	7.75357E-12	397.323E-3	397.638E-3	29.8359E-3	40.0238E-12	-892.539E-3	26.2003E-3
385.827E-3	7.53221E-12	385.561E-3	385.827E-3	-121.867E-3	39.9492E-12	-970.745E-3	26.0392E-3
374.016E-3	7.40967E-12	373.711E-3	374.016E-3	-25.5019E-3	39.9872E-12	-936.620E-3	26.6999E-3
362.205E-3	7.19524E-12	361.915E-3	362.205E-3	2.45358E-3	40.0606E-12	-948.515E-3	23.9174E-3
350.394E-3	7.02665E-12	350.161E-3	350.394E-3	156.858E-3	40.0132E-12	-884.050E-3	25.5297E-3
338.583E-3	6.75207E-12	338.314E-3	338.583E-3	-40.8160E-3	39.9793E-12	-942.166E-3	25.6720E-3
326.772E-3	6.57754E-12	326.519E-3	326.772E-3	-118.306E-3	39.9867E-12	-988.785E-3	26.4199E-3
314.961E-3	6.39931E-12	314.684E-3	314.961E-3	-9.31936E-3	40.0676E-12	-949.162E-3	24.9053E-3
303.150E-3	6.18628E-12	302.864E-3	303.150E-3	-55.4590E-3	39.9536E-12	-981.300E-3	26.9994E-3
291.339E-3	6.08277E-12	291.122E-3	291.339E-3	-62.3146E-3	40.0630E-12	-955.633E-3	21.8156E-3
279.528E-3	5.81598E-12	279.296E-3	279.528E-3	15.6246E-3	39.9904E-12	-956.624E-3	21.8356E-3
267.717E-3	5.61698E-12	267.477E-3	267.717E-3	80.8660E-3	40.0498E-12	-924.783E-3	24.5673E-3
255.906E-3	5.33813E-12	255.649E-3	255.906E-3	-7.12767E-3	39.9517E-12	-954.285E-3	27.4479E-3
244.094E-3	5.20900E-12	243.879E-3	244.094E-3	-168.307E-3	40.0360E-12	-1.00554E+0	26.9813E-3
232.283E-3	5.04424E-12	232.026E-3	232.283E-3	-20.0197E-3	39.9714E-12	-968.618E-3	28.9649E-3
220.472E-3	4.80678E-12	220.198E-3	220.472E-3	24.3668E-3	40.0379E-12	-956.622E-3	24.2553E-3
208.661E-3	4.63025E-12	208.421E-3	208.661E-3	-63.8353E-3	40.0416E-12	-993.998E-3	25.7070E-3
196.850E-3	4.32043E-12	196.587E-3	196.850E-3	6.40224E-3	39.8852E-12	-980.678E-3	28.6208E-3
185.039E-3	4.12521E-12	184.815E-3	185.039E-3	-40.5785E-3	40.0833E-12	-1.01429E+0	26.0013E-3
173.228E-3	3.88952E-12	173.005E-3	173.228E-3	-1.79431E-3	39.9634E-12	-997.531E-3	27.9633E-3
161.417E-3	3.62497E-12	161.166E-3	161.417E-3	-117.694E-3	40.0024E-12	-1.05166E+0	25.7844E-3
149.606E-3	3.39411E-12	149.342E-3	149.606E-3	-66.8530E-3	39.9941E-12	-1.04055E+0	27.7956E-3
137.795E-3	3.18308E-12	137.550E-3	137.795E-3	-20.3561E-3	39.9926E-12	-1.04327E+0	29.6417E-3
125.984E-3	2.87296E-12	125.781E-3	125.984E-3	-26.8241E-3	39.9799E-12	-1.03805E+0	26.1925E-3
114.173E-3	2.62014E-12	113.957E-3	114.173E-3	54.2509E-3	40.0191E-12	-992.443E-3	28.4243E-3
102.362E-3	2.30957E-12	102.157E-3	102.362E-3	11.1700E-3	39.9988E-12	-995.019E-3	28.3224E-3
90.5512E-3	2.04420E-12	90.3454E-3	90.5512E-3	44.8729E-3	39.9486E-12	-1.00484E+0	28.9277E-3
78.7402E-3	1.78199E-12	78.5033E-3	78.7402E-3	-44.5570E-3	39.9837E-12	-1.04640E+0	25.9216E-3
66.9291E-3	1.49067E-12	66.6327E-3	66.9291E-3	49.0978E-3	40.0538E-12	-1.02622E+0	23.8445E-3
55.1181E-3	1.22452E-12	54.8553E-3	55.1181E-3	46.0702E-3	39.9718E-12	-1.00496E+0	25.0229E-3
43.3071E-3	958.004E-15	43.0367E-3	43.3071E-3	-33.3242E-3	40.0638E-12	-1.03428E+0	26.9400E-3
31.4961E-3	654.615E-15	31.2078E-3	31.4961E-3	45.6715E-3	39.9818E-12	-1.03882E+0	27.6281E-3
19.6850E-3	364.487E-15	19.4188E-3	19.6850E-3	161.059E-3	39.9460E-12	-994.997E-3	26.5812E-3
7.87402E-3	63.8999E-15	7.57072E-3	7.87402E-3	-66.7130E-3	39.9952E-12	-1.06423E+0	28.1840E-3
-3.93701E-3	-216.760E-15	-4.32096E-3	-3.93701E-3	-13.7510E-3	39.9633E-12	-1.04834E+0	24.6429E-3
-15.7480E-3	-514.516E-15	-16.1016E-3	-15.7480E-3	-52.0175E-3	40.0031E-12	-1.07719E+0	25.3909E-3
-27.5591E-3	-787.487E-15	-27.9190E-3	-27.5591E-3	87.9431E-3	39.9971E-12	-1.04362E+0	27.3181E-3
-39.3701E-3	-1.08056E-12	-39.6904E-3	-39.3701E-3	-58.5079E-3	40.0053E-12	-1.08445E+0	28.3433E-3
-51.1811E-3	-1.36307E-12	-51.5444E-3	-51.1811E-3	-1.01708E-3	39.9588E-12	-1.07237E+0	27.0451E-3
-62.9921E-3	-1.67921E-12	-63.3181E-3	-62.9921E-3	3.55058E-3	40.0001E-12	-1.09792E+0	25.9753E-3
-74.8032E-3	-1.88688E-12	-75.1501E-3	-74.8032E-3	159.290E-3	40.0033E-12	-1.04864E+0	26.5592E-3
-86.6142E-3	-2.01722E-12	-87.0053E-3	-86.6142E-3	-165.718E-3	39.9745E-12	-1.15819E+0	28.0733E-3
-98.4252E-3	-2.12650E-12	-98.7816E-3	-98.4252E-3	-20.6080E-3	39.9655E-12	-1.14387E+0	27.9316E-3
-110.236E-3	-2.22946E-12	-110.644E-3	-110.236E-3	93.8319E-3	40.0042E-12	-1.10113E+0	26.6014E-3
-122.047E-3	-2.36222E-12	-122.383E-3	-122.047E-3	-72.6578E-3	40.0157E-12	-1.17478E+0	29.2140E-3
-133.858E-3	-2.47126E-12	-134.246E-3	-133.858E-3	-37.0678E-3	39.9814E-12	-1.16997E+0	24.6733E-3
-145.669E-3	-2.63357E-12	-146.043E-3	-145.669E-3	-20.4897E-3	39.9845E-12	-1.16908E+0	25.2212E-3
-157.480E-3	-2.77366E-12	-157.816E-3	-157.480E-3	-46.2691E-3	40.0041E-12	-1.19174E+0	28.5673E-3
-169.291E-3	-2.90112E-12	-169.681E-3	-169.291E-3	-14.6395E-3	39.9845E-12	-1.20312E+0	23.9610E-3
-181.102E-3	-3.03981E-12	-181.429E-3	-181.102E-3	-1.09074E-3	39.9726E-12	-1.20487E+0	29.1162E-3
-192.913E-3	-3.15298E-12	-193.242E-3	-192.913E-3	845.298E-6	40.0372E-12	-1.19871E+0	25.2538E-3
-204.724E-3	-3.26209E-12	-205.072E-3	-204.724E-3	-92.7079E-3	40.0071E-12	-1.24731E+0	22.7179E-3
-216.535E-3	-3.40296E-12	-216.876E-3	-216.535E-3	-103.352E-3	40.0129E-12	-1.25772E+0	26.0811E-3
-228.346E-3	-3.49835E-12	-228.695E-3	-228.346E-3	19.0427E-3	39.9440E-12	-1.21495E+0	27.3368E-3
-240.157E-3	-3.60971E-12	-240.494E-3	-240.157E-3	-2.56336E-3	39.9922E-12	-1.22959E+0	25.9637E-3
-251.969E-3	-3.77438E-12	-252.315E-3	-251.969E-3	-110.498E-3	39.9750E-12	-1.26114E+0	24.3033E-3
-263.780E-3	-3.93422E-12	-264.079E-3	-263.780E-3	-40.6441E-3	39.9834E-12	-1.26465E+0	28.2800E-3
-275.591E-3	-4.05141E-12	-275.882E-3	-275.591E-3	73.1077E-3	40.0058E-12	-1.21807E+0	28.7893E-3
-287.402E-3	-4.19303E-12	-287.719E-3	-287.402E-3	-116.977E-3	39.9673E-12	-1.28307E+0	28.3354E-3
-299.213E-3	-4.36185E-12	-299.512E-3	-299.213E-3	-47.1967E-3	40.0224E-12	-1.30472E+0	26.5812E-3
-311.024E-3	-4.52734E-12	-311.350E-3	-311.024E-3	-46.2919E-3	39.9614E-12	-1.30677E+0	27.4568E-3
-322.835E-3	-4.63902E-12	-323.133E-3	-322.835E-3	5.98285E-3	39.9549E-12	-1.29571E+0	29.5793E-3
-334.646E-3	-4.76195E-12	-334.913E-3	-334.646E-3	50.9006E-3	40.0414E-12	-1.29044E+0	25.8083E-3
-346.457E-3	-4.82751E-12	-346.735E-3	-346.457E-3	-226.179E-3	39.9932E-12	-1.37798E+0	27.2403E-3
-358.268E-3	-4.99737E-12	-358.572E-3	-358.268E-3	-108.999E-3	40.0087E-12	-1.37258E+0	26.6967E-3
-370.079E-3	-5.15967E-12	-370.361E-3	-370.079E-3	74.5688E-3	40.0015E-12	-1.32231E+0	26.7327E-3
-381.890E-3	-5.29256E-12	-382.128E-3	-381.890E-3	-125.191E-3	40.0216E-12	-1.38100E+0	25.3181E-3
-393.701E-3	-5.36826E-12	-394.002E-3	-393.701E-3	-69.4871E-3	39.9144E-12	-1.38613E+0	29.7335E-3
-405.512E-3	-5.56812E-12	-405.814E-3	-405.512E-3	116.806E-3	40.0309E-12	-1.34643E+0	24.0072E-3
-417.323E-3	-5.69407E-12	-417.618E-3	-417.323E-3	18.9451E-3	40.0197E-12	-1.37398E+0	25.4218E-3
-429.134E-3	-5.81106E-12	-429.421E-3	-429.134E-3	-79.5177E-3	40.0724E-12	-1.42591E+0	25.7534E-3
-440.945E-3	-6.00358E-12	-441.217E-3	-440.945E-3	83.6580E-3	40.0117E-12	-1.36696E+0	27.1622E-3
-452.756E-3	-6.23627E-12	-453.024E-3	-452.756E-3	-107.272E-3	39.9933E-12	-1.44089E+0	28.6862E-3
-464.567E-3	-6.47997E-12	-464.851E-3	-464.567E-3	-13.5328E-3	39.9979E-12	-1.44558E+0	25.0785E-3
-476.378E-3	-6.66794E-12	-476.677E-3	-476.378E-3	-130.338E-3	39.9653E-12	-1.50154E+0	27.9580E-3
-488.189E-3	-6.97428E-12	-488.414E-3	-488.189E-3	-22.1681E-3	40.0049E-12	-1.48251E+0	29.3328E-3
-500.000E-3	-7.31255E-12	-500.254E-3	-500.000E-3	16.2366E-3	40.0103E-12	-1.47489E+0	29.3652E-3
