Experiment	bias spectroscopy	
Date	30.11.2015 22:48:14	
User		
X (m)	29.5629E-9	
Y (m)	-165.744E-9	
Z (m)	-3.75578E-9	
Z offset (m)	0E+0	
Settling time (s)	30E-3	
Integration time (s)	200E-3	
Z-Ctrl hold	TRUE	
Final Z (m)	-3.75578E-9	
Filter type	None	
Order		
Cutoff frq		
Current (A)	43.9541E-12	
Z (m)	-3.75578E-9	
Phase (deg)	-170.096E-3	
Amplitude (m)	40.2669E-12	
Frequency Shift (Hz)	-894.412E-3	
Excitation (V)	19.1128E-3	

[DATA]
Bias calc (V)	Current (A)	Applied Voltage measured (V)	Bias (V)	Phase (deg)	Amplitude (m)	Frequency Shift (Hz)	Excitation (V)
1.00000E+0	43.4942E-12	999.336E-3	1.00000E+0	4.55358E-3	40.0505E-12	-752.055E-3	23.7751E-3
988.189E-3	42.4702E-12	987.540E-3	988.189E-3	-18.3736E-3	39.9793E-12	-777.063E-3	26.6254E-3
976.378E-3	41.6823E-12	975.770E-3	976.378E-3	-125.219E-3	39.9679E-12	-805.769E-3	25.1368E-3
964.567E-3	41.5534E-12	963.906E-3	964.567E-3	120.256E-3	40.0014E-12	-731.200E-3	28.0226E-3
952.756E-3	41.1487E-12	952.157E-3	952.756E-3	7.80767E-3	40.0140E-12	-778.098E-3	24.3633E-3
940.945E-3	40.1865E-12	940.325E-3	940.945E-3	3.45513E-3	39.9847E-12	-796.914E-3	25.0149E-3
929.134E-3	39.6441E-12	928.509E-3	929.134E-3	44.7386E-3	39.9836E-12	-784.066E-3	27.2757E-3
917.323E-3	38.8916E-12	916.745E-3	917.323E-3	-72.2165E-3	40.0266E-12	-833.178E-3	25.0315E-3
905.512E-3	38.3258E-12	904.899E-3	905.512E-3	184.269E-3	40.0843E-12	-748.471E-3	23.4545E-3
893.701E-3	37.6786E-12	893.136E-3	893.701E-3	-76.2011E-3	39.9552E-12	-814.423E-3	26.3427E-3
881.890E-3	36.9989E-12	881.293E-3	881.890E-3	-4.16009E-3	39.9675E-12	-815.819E-3	26.9121E-3
870.079E-3	36.8315E-12	869.486E-3	870.079E-3	112.547E-3	39.9688E-12	-739.806E-3	27.8594E-3
858.268E-3	36.1225E-12	857.666E-3	858.268E-3	84.4463E-3	39.9520E-12	-744.574E-3	29.2282E-3
846.457E-3	35.4193E-12	845.834E-3	846.457E-3	-850.679E-6	39.9630E-12	-772.504E-3	30.8596E-3
834.646E-3	35.2966E-12	834.061E-3	834.646E-3	-78.0067E-3	40.0305E-12	-768.063E-3	24.7898E-3
822.835E-3	34.7083E-12	822.246E-3	822.835E-3	-120.241E-3	40.0549E-12	-786.791E-3	21.8551E-3
811.024E-3	33.5752E-12	810.429E-3	811.024E-3	39.3530E-3	39.9140E-12	-738.999E-3	25.7762E-3
799.213E-3	33.4219E-12	798.659E-3	799.213E-3	-47.3638E-3	40.0497E-12	-757.784E-3	26.9623E-3
787.402E-3	32.5628E-12	786.827E-3	787.402E-3	-62.8260E-3	39.9512E-12	-769.138E-3	26.6185E-3
775.591E-3	32.1369E-12	775.041E-3	775.591E-3	102.471E-3	39.9842E-12	-727.045E-3	26.9774E-3
763.780E-3	31.6036E-12	763.209E-3	763.780E-3	-22.8241E-3	40.0664E-12	-724.319E-3	23.7443E-3
751.969E-3	31.0094E-12	751.435E-3	751.969E-3	-13.2142E-3	39.8970E-12	-734.465E-3	29.8373E-3
740.157E-3	30.4854E-12	739.631E-3	740.157E-3	-89.8217E-3	40.0234E-12	-762.680E-3	25.3936E-3
728.346E-3	30.2005E-12	727.787E-3	728.346E-3	98.6990E-3	40.0576E-12	-703.202E-3	27.4805E-3
716.535E-3	29.7711E-12	716.005E-3	716.535E-3	-22.7120E-3	40.0535E-12	-723.833E-3	23.7904E-3
704.724E-3	28.9418E-12	704.311E-3	704.724E-3	70.5300E-3	40.0131E-12	-709.498E-3	26.2059E-3
692.913E-3	28.6630E-12	692.513E-3	692.913E-3	-6.36581E-3	40.0294E-12	-723.894E-3	28.8849E-3
681.102E-3	28.0739E-12	680.745E-3	681.102E-3	6.38129E-3	40.0839E-12	-735.850E-3	23.7640E-3
669.291E-3	27.2681E-12	668.912E-3	669.291E-3	191.758E-3	39.9389E-12	-662.468E-3	28.3274E-3
657.480E-3	26.8463E-12	657.081E-3	657.480E-3	-79.4133E-3	40.0806E-12	-751.539E-3	23.6948E-3
645.669E-3	26.2997E-12	645.274E-3	645.669E-3	102.068E-3	39.9991E-12	-694.351E-3	23.9513E-3
633.858E-3	25.6695E-12	633.472E-3	633.858E-3	-90.3252E-3	39.9725E-12	-761.578E-3	28.2940E-3
622.047E-3	25.3768E-12	621.673E-3	622.047E-3	-144.271E-3	40.0262E-12	-773.120E-3	23.7590E-3
610.236E-3	24.7959E-12	609.908E-3	610.236E-3	-74.5133E-3	39.9785E-12	-757.448E-3	27.6124E-3
598.425E-3	24.0460E-12	598.092E-3	598.425E-3	52.0820E-3	40.0063E-12	-703.362E-3	25.7487E-3
586.614E-3	23.6056E-12	586.281E-3	586.614E-3	116.539E-3	40.0418E-12	-678.387E-3	25.3709E-3
574.803E-3	23.0321E-12	574.462E-3	574.803E-3	-12.5277E-3	39.9356E-12	-724.408E-3	26.9452E-3
562.992E-3	22.4299E-12	562.688E-3	562.992E-3	-70.8580E-3	39.9645E-12	-759.273E-3	28.1794E-3
551.181E-3	22.0150E-12	550.871E-3	551.181E-3	99.5116E-3	40.0782E-12	-718.464E-3	27.6296E-3
539.370E-3	21.4649E-12	539.005E-3	539.370E-3	144.578E-3	39.9517E-12	-664.486E-3	29.2874E-3
527.559E-3	20.7855E-12	527.221E-3	527.559E-3	-71.1848E-3	40.0105E-12	-728.467E-3	25.8744E-3
515.748E-3	20.3753E-12	515.390E-3	515.748E-3	70.1296E-3	40.0730E-12	-683.244E-3	23.5957E-3
503.937E-3	19.7907E-12	503.599E-3	503.937E-3	-70.8249E-3	40.0355E-12	-744.275E-3	26.0255E-3
492.126E-3	19.2737E-12	491.774E-3	492.126E-3	-180.325E-3	40.0059E-12	-792.779E-3	24.6815E-3
480.315E-3	18.8039E-12	479.962E-3	480.315E-3	-28.5396E-3	40.0207E-12	-764.898E-3	22.6084E-3
468.504E-3	18.4061E-12	468.170E-3	468.504E-3	52.6648E-3	40.0354E-12	-714.271E-3	21.0371E-3
456.693E-3	17.6678E-12	456.360E-3	456.693E-3	36.4360E-3	39.9668E-12	-709.359E-3	26.3908E-3
444.882E-3	17.2356E-12	444.597E-3	444.882E-3	138.280E-3	40.0116E-12	-665.310E-3	25.9571E-3
433.071E-3	16.8527E-12	432.762E-3	433.071E-3	-296.233E-3	40.0148E-12	-813.573E-3	25.9544E-3
421.260E-3	16.3258E-12	420.958E-3	421.260E-3	127.307E-3	39.9861E-12	-709.484E-3	27.6443E-3
409.449E-3	15.8305E-12	409.170E-3	409.449E-3	-14.8628E-3	40.0099E-12	-738.394E-3	26.4711E-3
397.638E-3	15.2869E-12	397.320E-3	397.638E-3	94.6677E-3	39.9690E-12	-731.117E-3	27.6851E-3
385.827E-3	14.8052E-12	385.564E-3	385.827E-3	135.532E-3	40.0724E-12	-694.043E-3	23.4245E-3
374.016E-3	14.3570E-12	373.715E-3	374.016E-3	-29.8907E-3	39.9638E-12	-731.620E-3	27.4528E-3
362.205E-3	13.9428E-12	361.918E-3	362.205E-3	-2.79213E-3	40.0024E-12	-728.262E-3	25.6727E-3
350.394E-3	13.2686E-12	350.161E-3	350.394E-3	-78.8356E-3	40.0028E-12	-780.244E-3	26.8087E-3
338.583E-3	12.8860E-12	338.310E-3	338.583E-3	-68.2412E-3	39.9694E-12	-761.316E-3	28.2735E-3
326.772E-3	12.4776E-12	326.523E-3	326.772E-3	-88.4237E-3	40.0363E-12	-782.384E-3	25.9524E-3
314.961E-3	11.8704E-12	314.692E-3	314.961E-3	-49.7991E-3	40.0411E-12	-795.303E-3	24.7896E-3
303.150E-3	11.3852E-12	302.869E-3	303.150E-3	92.4983E-3	39.9714E-12	-749.437E-3	28.3259E-3
291.339E-3	10.8864E-12	291.115E-3	291.339E-3	14.3015E-3	39.9785E-12	-778.082E-3	30.2132E-3
279.528E-3	10.3789E-12	279.292E-3	279.528E-3	173.195E-3	40.0581E-12	-705.629E-3	26.9764E-3
267.717E-3	9.83913E-12	267.474E-3	267.717E-3	-45.1271E-3	39.9876E-12	-770.302E-3	26.7840E-3
255.906E-3	9.43585E-12	255.653E-3	255.906E-3	11.2484E-3	40.1127E-12	-745.065E-3	22.1114E-3
244.094E-3	8.98108E-12	243.880E-3	244.094E-3	-62.9850E-3	39.9946E-12	-790.599E-3	25.1923E-3
232.283E-3	8.42977E-12	232.029E-3	232.283E-3	54.1715E-3	39.9900E-12	-761.757E-3	28.2234E-3
220.472E-3	8.02570E-12	220.198E-3	220.472E-3	49.9882E-3	40.0383E-12	-735.518E-3	24.9346E-3
208.661E-3	7.55551E-12	208.425E-3	208.661E-3	-78.2106E-3	39.9412E-12	-795.763E-3	28.1485E-3
196.850E-3	7.12355E-12	196.590E-3	196.850E-3	100.525E-3	40.0487E-12	-749.653E-3	26.0870E-3
185.039E-3	6.69326E-12	184.820E-3	185.039E-3	-28.3376E-3	40.0089E-12	-800.495E-3	25.8920E-3
173.228E-3	6.19782E-12	173.009E-3	173.228E-3	125.442E-3	40.0337E-12	-730.549E-3	24.7428E-3
161.417E-3	5.59472E-12	161.181E-3	161.417E-3	3.38744E-3	40.0056E-12	-770.255E-3	28.1491E-3
149.606E-3	5.13369E-12	149.358E-3	149.606E-3	-12.5451E-3	39.9589E-12	-781.838E-3	25.8666E-3
137.795E-3	4.74845E-12	137.573E-3	137.795E-3	24.4143E-3	39.9749E-12	-786.413E-3	27.4349E-3
125.984E-3	4.19559E-12	125.804E-3	125.984E-3	-133.887E-3	40.0005E-12	-843.948E-3	24.7357E-3
114.173E-3	3.74949E-12	113.959E-3	114.173E-3	48.7885E-3	40.0125E-12	-797.604E-3	26.0293E-3
102.362E-3	3.25816E-12	102.155E-3	102.362E-3	-99.2444E-3	40.0134E-12	-848.766E-3	25.3610E-3
90.5512E-3	2.91114E-12	90.3455E-3	90.5512E-3	129.515E-3	40.0296E-12	-771.972E-3	22.3495E-3
78.7402E-3	2.46512E-12	78.5141E-3	78.7402E-3	-83.8266E-3	39.9390E-12	-841.961E-3	28.0771E-3
66.9291E-3	2.02220E-12	66.6335E-3	66.9291E-3	132.870E-3	40.0098E-12	-802.336E-3	28.1656E-3
55.1181E-3	1.61570E-12	54.8617E-3	55.1181E-3	-10.5179E-3	39.9860E-12	-845.079E-3	28.4208E-3
43.3071E-3	1.20956E-12	43.0436E-3	43.3071E-3	-24.1222E-3	39.9971E-12	-864.573E-3	26.6088E-3
31.4961E-3	826.260E-15	31.2165E-3	31.4961E-3	-142.516E-3	39.9633E-12	-922.467E-3	32.9823E-3
19.6850E-3	458.989E-15	19.4190E-3	19.6850E-3	33.7073E-3	40.0109E-12	-872.521E-3	27.8755E-3
7.87402E-3	95.3974E-15	7.56181E-3	7.87402E-3	118.872E-3	40.0416E-12	-854.728E-3	27.3817E-3
-3.93701E-3	-228.874E-15	-4.32117E-3	-3.93701E-3	7.57280E-3	40.0494E-12	-865.391E-3	25.8523E-3
-15.7480E-3	-575.260E-15	-16.1017E-3	-15.7480E-3	109.791E-3	40.0628E-12	-844.422E-3	22.4889E-3
-27.5591E-3	-915.804E-15	-27.9264E-3	-27.5591E-3	-59.9458E-3	39.9656E-12	-903.038E-3	26.1099E-3
-39.3701E-3	-1.27651E-12	-39.6872E-3	-39.3701E-3	-70.4486E-3	40.0025E-12	-941.200E-3	25.8607E-3
-51.1811E-3	-1.61495E-12	-51.5447E-3	-51.1811E-3	-45.3643E-3	40.0107E-12	-929.907E-3	25.0221E-3
-62.9921E-3	-1.96009E-12	-63.3225E-3	-62.9921E-3	22.2515E-3	40.0355E-12	-913.716E-3	23.7270E-3
-74.8032E-3	-2.21744E-12	-75.1625E-3	-74.8032E-3	73.3285E-3	39.9748E-12	-901.206E-3	27.8909E-3
-86.6142E-3	-2.43264E-12	-87.0137E-3	-86.6142E-3	-95.0929E-3	39.9831E-12	-949.962E-3	26.0472E-3
-98.4252E-3	-2.55896E-12	-98.7799E-3	-98.4252E-3	-155.555E-3	39.9446E-12	-997.765E-3	28.1152E-3
-110.236E-3	-2.73448E-12	-110.640E-3	-110.236E-3	114.937E-3	40.0374E-12	-927.526E-3	25.6296E-3
-122.047E-3	-2.87016E-12	-122.388E-3	-122.047E-3	-276.162E-3	39.9648E-12	-1.05468E+0	29.8839E-3
-133.858E-3	-3.05992E-12	-134.241E-3	-133.858E-3	94.2243E-3	40.0529E-12	-965.883E-3	27.3611E-3
-145.669E-3	-3.20927E-12	-146.040E-3	-145.669E-3	192.896E-3	39.9930E-12	-904.346E-3	28.1528E-3
-157.480E-3	-3.33008E-12	-157.824E-3	-157.480E-3	-238.440E-3	39.9471E-12	-1.02669E+0	30.4012E-3
-169.291E-3	-3.47273E-12	-169.683E-3	-169.291E-3	-6.95116E-3	39.9813E-12	-1.00006E+0	28.6949E-3
-181.102E-3	-3.60912E-12	-181.425E-3	-181.102E-3	101.928E-3	40.0308E-12	-961.157E-3	28.6427E-3
-192.913E-3	-3.71966E-12	-193.230E-3	-192.913E-3	-146.755E-3	39.9948E-12	-1.01874E+0	26.6795E-3
-204.724E-3	-3.90731E-12	-205.050E-3	-204.724E-3	71.9325E-3	40.0362E-12	-983.128E-3	23.9365E-3
-216.535E-3	-4.02185E-12	-216.857E-3	-216.535E-3	-98.0142E-3	39.9261E-12	-1.03709E+0	28.5324E-3
-228.346E-3	-4.21003E-12	-228.680E-3	-228.346E-3	-120.767E-3	40.0634E-12	-1.06017E+0	24.3082E-3
-240.157E-3	-4.32741E-12	-240.468E-3	-240.157E-3	-137.907E-3	39.9757E-12	-1.08721E+0	27.4435E-3
-251.969E-3	-4.46591E-12	-252.287E-3	-251.969E-3	30.9988E-3	40.0038E-12	-1.03586E+0	26.2564E-3
-263.780E-3	-4.61083E-12	-264.057E-3	-263.780E-3	171.550E-3	40.0142E-12	-1.00216E+0	23.6142E-3
-275.591E-3	-4.72884E-12	-275.865E-3	-275.591E-3	-49.1137E-3	40.0226E-12	-1.05595E+0	25.6475E-3
-287.402E-3	-4.87440E-12	-287.710E-3	-287.402E-3	86.5182E-3	39.9866E-12	-1.00006E+0	26.0934E-3
-299.213E-3	-5.07189E-12	-299.503E-3	-299.213E-3	-36.9593E-3	39.9907E-12	-1.05802E+0	24.9232E-3
-311.024E-3	-5.19418E-12	-311.327E-3	-311.024E-3	13.0344E-3	39.9743E-12	-1.05136E+0	26.2274E-3
-322.835E-3	-5.37022E-12	-323.122E-3	-322.835E-3	-25.2472E-3	40.0090E-12	-1.07115E+0	25.7933E-3
-334.646E-3	-5.52624E-12	-334.890E-3	-334.646E-3	-115.258E-3	39.9667E-12	-1.13438E+0	27.0321E-3
-346.457E-3	-5.65515E-12	-346.711E-3	-346.457E-3	-36.3694E-3	40.0256E-12	-1.09408E+0	26.8972E-3
-358.268E-3	-5.89029E-12	-358.555E-3	-358.268E-3	-162.477E-3	40.0642E-12	-1.17928E+0	24.8839E-3
-370.079E-3	-5.98141E-12	-370.355E-3	-370.079E-3	21.4565E-3	39.9522E-12	-1.12922E+0	29.2823E-3
-381.890E-3	-6.15879E-12	-382.120E-3	-381.890E-3	110.078E-3	39.9838E-12	-1.10023E+0	25.5592E-3
-393.701E-3	-6.27984E-12	-393.991E-3	-393.701E-3	-55.2153E-3	40.0222E-12	-1.14850E+0	25.8602E-3
-405.512E-3	-6.47267E-12	-405.800E-3	-405.512E-3	10.5494E-3	39.9907E-12	-1.13079E+0	27.4386E-3
-417.323E-3	-6.55784E-12	-417.599E-3	-417.323E-3	-29.8218E-3	39.9721E-12	-1.16330E+0	29.9711E-3
-429.134E-3	-6.76135E-12	-429.408E-3	-429.134E-3	-42.9533E-3	39.9386E-12	-1.18539E+0	27.8684E-3
-440.945E-3	-7.00527E-12	-441.210E-3	-440.945E-3	-98.6207E-3	40.0559E-12	-1.22794E+0	26.2497E-3
-452.756E-3	-7.07978E-12	-453.015E-3	-452.756E-3	-77.0320E-3	39.9784E-12	-1.24499E+0	28.9207E-3
-464.567E-3	-7.23104E-12	-464.843E-3	-464.567E-3	12.4324E-3	40.0267E-12	-1.23676E+0	26.8138E-3
-476.378E-3	-7.29569E-12	-476.674E-3	-476.378E-3	-152.693E-3	39.9605E-12	-1.29831E+0	28.5328E-3
-488.189E-3	-7.43989E-12	-488.406E-3	-488.189E-3	29.2820E-3	40.0181E-12	-1.24652E+0	28.0375E-3
-500.000E-3	-7.52416E-12	-500.246E-3	-500.000E-3	-387.996E-6	39.9691E-12	-1.26768E+0	23.8432E-3
