Experiment	bias spectroscopy	
Date	01.12.2015 12:26:24	
User		
X (m)	279.787E-9	
Y (m)	-138.311E-9	
Z (m)	-4.15189E-9	
Z offset (m)	0E+0	
Settling time (s)	30E-3	
Integration time (s)	200E-3	
Z-Ctrl hold	TRUE	
Final Z (m)	-4.15189E-9	
Filter type	None	
Order		
Cutoff frq		
Current (A)	30.1054E-12	
Z (m)	-4.15189E-9	
Phase (deg)	-65.8465E-3	
Amplitude (m)	39.7106E-12	
Frequency Shift (Hz)	-1.06655E+0	
Excitation (V)	36.6624E-3	

[DATA]
Bias calc (V)	Current (A)	Applied Voltage measured (V)	Bias (V)	Phase (deg)	Amplitude (m)	Frequency Shift (Hz)	Excitation (V)
1.00000E+0	30.0776E-12	999.334E-3	1.00000E+0	-108.338E-3	40.0129E-12	-1.13755E+0	24.0365E-3
988.189E-3	29.8640E-12	987.545E-3	988.189E-3	-36.1623E-3	39.9629E-12	-1.11960E+0	24.3043E-3
976.378E-3	29.3850E-12	975.776E-3	976.378E-3	135.746E-3	39.9859E-12	-1.06689E+0	25.6700E-3
964.567E-3	29.2994E-12	963.903E-3	964.567E-3	17.4970E-3	39.9318E-12	-1.07886E+0	26.9619E-3
952.756E-3	29.3789E-12	952.139E-3	952.756E-3	-41.2124E-3	40.0909E-12	-1.08148E+0	22.3427E-3
940.945E-3	28.8002E-12	940.304E-3	940.945E-3	128.097E-3	39.9833E-12	-1.03418E+0	25.3277E-3
929.134E-3	28.6130E-12	928.488E-3	929.134E-3	-789.756E-6	40.0280E-12	-1.04442E+0	24.4379E-3
917.323E-3	28.3048E-12	916.738E-3	917.323E-3	-43.1913E-3	40.0315E-12	-1.07384E+0	25.7076E-3
905.512E-3	28.0854E-12	904.884E-3	905.512E-3	150.889E-3	39.9374E-12	-986.882E-3	26.5485E-3
893.701E-3	28.1415E-12	893.136E-3	893.701E-3	22.4819E-3	40.0281E-12	-1.01939E+0	25.0040E-3
881.890E-3	27.6630E-12	881.294E-3	881.890E-3	-87.9019E-3	40.0239E-12	-1.04642E+0	25.6409E-3
870.079E-3	27.8321E-12	869.488E-3	870.079E-3	82.6637E-3	40.0158E-12	-1.01498E+0	27.9757E-3
858.268E-3	27.4395E-12	857.661E-3	858.268E-3	11.6380E-3	39.9967E-12	-1.00722E+0	24.4987E-3
846.457E-3	27.0299E-12	845.834E-3	846.457E-3	91.6528E-3	39.9719E-12	-995.732E-3	26.2262E-3
834.646E-3	27.0261E-12	834.063E-3	834.646E-3	-3.93860E-3	40.0207E-12	-1.01054E+0	24.9969E-3
822.835E-3	26.7124E-12	822.258E-3	822.835E-3	74.2562E-3	40.0098E-12	-971.635E-3	25.9720E-3
811.024E-3	26.2780E-12	810.436E-3	811.024E-3	23.5222E-3	39.9945E-12	-967.612E-3	23.9803E-3
799.213E-3	26.1528E-12	798.659E-3	799.213E-3	37.6296E-3	39.9452E-12	-978.261E-3	25.0304E-3
787.402E-3	25.8727E-12	786.824E-3	787.402E-3	166.623E-3	39.9724E-12	-942.233E-3	25.8507E-3
775.591E-3	25.5660E-12	775.040E-3	775.591E-3	34.5138E-3	40.0067E-12	-955.997E-3	24.7485E-3
763.780E-3	25.1555E-12	763.211E-3	763.780E-3	-3.46838E-3	39.9606E-12	-968.308E-3	26.1551E-3
751.969E-3	25.2838E-12	751.431E-3	751.969E-3	159.217E-3	39.9494E-12	-928.223E-3	27.1781E-3
740.157E-3	24.9987E-12	739.629E-3	740.157E-3	-174.894E-3	40.0456E-12	-1.01574E+0	23.5780E-3
728.346E-3	24.6455E-12	727.792E-3	728.346E-3	201.905E-3	40.0509E-12	-894.502E-3	22.0698E-3
716.535E-3	24.2359E-12	716.001E-3	716.535E-3	36.9426E-3	39.9715E-12	-911.845E-3	27.8949E-3
704.724E-3	24.0794E-12	704.312E-3	704.724E-3	-97.4578E-3	40.0062E-12	-986.155E-3	25.4648E-3
692.913E-3	23.8895E-12	692.514E-3	692.913E-3	-104.586E-3	40.0278E-12	-979.556E-3	22.2373E-3
681.102E-3	23.4228E-12	680.737E-3	681.102E-3	78.5631E-3	39.9642E-12	-925.771E-3	25.9178E-3
669.291E-3	23.4040E-12	668.926E-3	669.291E-3	90.6779E-3	40.0817E-12	-908.805E-3	24.7269E-3
657.480E-3	22.8744E-12	657.094E-3	657.480E-3	-37.7859E-3	39.9338E-12	-962.771E-3	28.0506E-3
645.669E-3	22.5815E-12	645.276E-3	645.669E-3	81.6177E-3	39.9702E-12	-928.621E-3	25.6988E-3
633.858E-3	22.3890E-12	633.479E-3	633.858E-3	-9.39314E-3	39.9778E-12	-922.320E-3	24.2268E-3
622.047E-3	22.0167E-12	621.677E-3	622.047E-3	-91.5969E-3	40.0146E-12	-975.744E-3	24.0310E-3
610.236E-3	22.0018E-12	609.912E-3	610.236E-3	166.928E-3	39.9973E-12	-893.198E-3	26.4203E-3
598.425E-3	21.2663E-12	598.098E-3	598.425E-3	-49.8448E-3	39.9746E-12	-945.909E-3	26.5012E-3
586.614E-3	21.2430E-12	586.288E-3	586.614E-3	-85.5343E-3	40.0379E-12	-967.498E-3	22.5901E-3
574.803E-3	20.9225E-12	574.467E-3	574.803E-3	244.496E-3	40.0463E-12	-849.424E-3	26.9540E-3
562.992E-3	20.3532E-12	562.683E-3	562.992E-3	-122.342E-3	39.9121E-12	-952.002E-3	26.5712E-3
551.181E-3	20.3733E-12	550.868E-3	551.181E-3	-61.5283E-3	40.0484E-12	-977.511E-3	27.1720E-3
539.370E-3	19.8872E-12	539.003E-3	539.370E-3	104.938E-3	40.0489E-12	-909.820E-3	26.1688E-3
527.559E-3	19.6542E-12	527.220E-3	527.559E-3	164.200E-3	40.0569E-12	-879.240E-3	23.1267E-3
515.748E-3	19.2462E-12	515.386E-3	515.748E-3	17.1606E-3	39.9610E-12	-904.944E-3	26.4208E-3
503.937E-3	18.8250E-12	503.600E-3	503.937E-3	-21.7160E-3	39.9678E-12	-931.273E-3	25.1993E-3
492.126E-3	18.4183E-12	491.769E-3	492.126E-3	-82.6016E-3	40.0147E-12	-972.594E-3	27.8011E-3
480.315E-3	17.9339E-12	479.958E-3	480.315E-3	-19.0289E-3	40.0554E-12	-969.232E-3	23.8718E-3
468.504E-3	17.5865E-12	468.162E-3	468.504E-3	22.1111E-3	39.9934E-12	-950.844E-3	26.8722E-3
456.693E-3	17.2802E-12	456.345E-3	456.693E-3	-132.875E-3	40.0496E-12	-970.268E-3	21.6487E-3
444.882E-3	16.7118E-12	444.591E-3	444.882E-3	-3.19048E-3	39.9801E-12	-938.673E-3	24.9104E-3
433.071E-3	16.3292E-12	432.760E-3	433.071E-3	115.244E-3	39.9253E-12	-897.145E-3	23.5184E-3
421.260E-3	16.1976E-12	420.952E-3	421.260E-3	5.60138E-3	39.9989E-12	-917.888E-3	26.5846E-3
409.449E-3	15.7108E-12	409.172E-3	409.449E-3	-32.3088E-3	39.9811E-12	-941.266E-3	27.4215E-3
397.638E-3	15.3332E-12	397.315E-3	397.638E-3	-4.18689E-3	40.0247E-12	-926.202E-3	24.3298E-3
385.827E-3	14.7707E-12	385.568E-3	385.827E-3	65.4832E-3	39.9507E-12	-913.002E-3	25.9971E-3
374.016E-3	14.4084E-12	373.719E-3	374.016E-3	-43.2518E-3	40.0547E-12	-951.197E-3	22.7252E-3
362.205E-3	13.9490E-12	361.929E-3	362.205E-3	23.9305E-3	40.0128E-12	-935.006E-3	28.5816E-3
350.394E-3	13.4461E-12	350.170E-3	350.394E-3	8.88212E-3	39.9911E-12	-951.047E-3	26.6087E-3
338.583E-3	13.2678E-12	338.313E-3	338.583E-3	-29.9528E-3	40.0059E-12	-952.897E-3	26.1285E-3
326.772E-3	12.7084E-12	326.521E-3	326.772E-3	-116.790E-3	40.0980E-12	-1.01675E+0	25.0232E-3
314.961E-3	12.1469E-12	314.697E-3	314.961E-3	72.6800E-3	39.9850E-12	-927.753E-3	23.3458E-3
303.150E-3	11.7928E-12	302.875E-3	303.150E-3	7.13260E-3	39.9751E-12	-940.105E-3	27.3338E-3
291.339E-3	11.3835E-12	291.126E-3	291.339E-3	160.805E-3	39.9963E-12	-885.737E-3	27.7914E-3
279.528E-3	10.9469E-12	279.295E-3	279.528E-3	-89.5055E-3	40.0328E-12	-959.421E-3	22.7561E-3
267.717E-3	10.5456E-12	267.484E-3	267.717E-3	-158.424E-3	39.9959E-12	-984.091E-3	26.3240E-3
255.906E-3	9.92801E-12	255.658E-3	255.906E-3	102.660E-3	39.8958E-12	-931.892E-3	28.8881E-3
244.094E-3	9.66040E-12	243.883E-3	244.094E-3	-56.8576E-3	40.1004E-12	-992.373E-3	26.3448E-3
232.283E-3	9.23245E-12	232.030E-3	232.283E-3	21.3845E-3	40.0125E-12	-962.592E-3	27.6668E-3
220.472E-3	8.65818E-12	220.188E-3	220.472E-3	51.2337E-3	39.9870E-12	-967.294E-3	25.7218E-3
208.661E-3	8.27832E-12	208.407E-3	208.661E-3	151.711E-3	40.0213E-12	-925.652E-3	24.8436E-3
196.850E-3	7.81657E-12	196.575E-3	196.850E-3	-101.548E-3	40.0141E-12	-991.401E-3	24.9645E-3
185.039E-3	7.30656E-12	184.806E-3	185.039E-3	-7.87587E-3	39.9874E-12	-986.237E-3	28.8879E-3
173.228E-3	6.99471E-12	172.990E-3	173.228E-3	-22.6955E-3	40.0197E-12	-984.177E-3	26.4041E-3
161.417E-3	6.47887E-12	161.154E-3	161.417E-3	-47.8052E-3	40.0783E-12	-998.681E-3	26.5579E-3
149.606E-3	6.02898E-12	149.328E-3	149.606E-3	77.2370E-3	39.9781E-12	-946.202E-3	26.2140E-3
137.795E-3	5.56444E-12	137.536E-3	137.795E-3	28.4340E-3	40.0137E-12	-960.844E-3	22.4232E-3
125.984E-3	5.09069E-12	125.769E-3	125.984E-3	-29.8168E-3	39.9126E-12	-993.252E-3	29.2713E-3
114.173E-3	4.55033E-12	113.939E-3	114.173E-3	-81.7417E-3	40.0066E-12	-1.01837E+0	24.5987E-3
102.362E-3	4.07545E-12	102.135E-3	102.362E-3	-147.729E-3	39.9292E-12	-1.04520E+0	30.4092E-3
90.5512E-3	3.65176E-12	90.3286E-3	90.5512E-3	48.6371E-3	39.9640E-12	-1.03745E+0	27.9120E-3
78.7402E-3	3.18733E-12	78.5014E-3	78.7402E-3	-78.4750E-3	40.0199E-12	-1.06344E+0	28.1869E-3
66.9291E-3	2.72437E-12	66.6278E-3	66.9291E-3	-81.7122E-3	39.9983E-12	-1.06665E+0	28.2043E-3
55.1181E-3	2.22064E-12	54.8518E-3	55.1181E-3	-31.2048E-3	39.9648E-12	-1.08102E+0	28.0783E-3
43.3071E-3	1.72146E-12	43.0348E-3	43.3071E-3	-16.1186E-3	40.0030E-12	-1.05043E+0	27.7735E-3
31.4961E-3	1.22457E-12	31.2114E-3	31.4961E-3	-145.551E-3	39.9983E-12	-1.10568E+0	24.4696E-3
19.6850E-3	732.986E-15	19.4219E-3	19.6850E-3	4.63692E-3	40.0238E-12	-1.07597E+0	24.0819E-3
7.87402E-3	215.208E-15	7.56959E-3	7.87402E-3	65.7619E-3	39.9853E-12	-1.04792E+0	25.7826E-3
-3.93701E-3	-269.903E-15	-4.31664E-3	-3.93701E-3	-83.2753E-3	40.0308E-12	-1.10074E+0	26.8524E-3
-15.7480E-3	-778.893E-15	-16.1086E-3	-15.7480E-3	-35.4717E-3	40.0047E-12	-1.08405E+0	26.0987E-3
-27.5591E-3	-1.27240E-12	-27.9316E-3	-27.5591E-3	-7.52711E-3	40.0505E-12	-1.09652E+0	24.8019E-3
-39.3701E-3	-1.76011E-12	-39.6914E-3	-39.3701E-3	66.5236E-3	39.9405E-12	-1.06309E+0	25.5620E-3
-51.1811E-3	-2.23657E-12	-51.5453E-3	-51.1811E-3	-41.1582E-3	40.0465E-12	-1.08602E+0	24.1954E-3
-62.9921E-3	-2.72436E-12	-63.3197E-3	-62.9921E-3	-25.6182E-3	40.0729E-12	-1.10260E+0	24.0788E-3
-74.8032E-3	-3.03843E-12	-75.1587E-3	-74.8032E-3	-40.8752E-3	39.9648E-12	-1.12403E+0	27.9020E-3
-86.6142E-3	-3.26418E-12	-87.0158E-3	-86.6142E-3	15.5573E-3	40.0159E-12	-1.11174E+0	24.7788E-3
-98.4252E-3	-3.47000E-12	-98.7923E-3	-98.4252E-3	64.2180E-3	40.0293E-12	-1.08094E+0	26.3441E-3
-110.236E-3	-3.62497E-12	-110.642E-3	-110.236E-3	-52.0596E-3	40.0994E-12	-1.13731E+0	24.9304E-3
-122.047E-3	-3.74813E-12	-122.390E-3	-122.047E-3	28.9862E-3	39.9938E-12	-1.12678E+0	24.2800E-3
-133.858E-3	-3.93737E-12	-134.247E-3	-133.858E-3	-52.8191E-3	39.9769E-12	-1.15615E+0	26.2735E-3
-145.669E-3	-4.16642E-12	-146.048E-3	-145.669E-3	-74.8098E-3	40.0121E-12	-1.17914E+0	25.0943E-3
-157.480E-3	-4.40247E-12	-157.822E-3	-157.480E-3	-146.142E-3	39.9845E-12	-1.22204E+0	27.5766E-3
-169.291E-3	-4.57594E-12	-169.689E-3	-169.291E-3	31.3354E-3	39.9717E-12	-1.18190E+0	26.4772E-3
-181.102E-3	-4.81465E-12	-181.432E-3	-181.102E-3	105.523E-3	39.9956E-12	-1.13980E+0	28.0656E-3
-192.913E-3	-5.03174E-12	-193.235E-3	-192.913E-3	-131.281E-3	39.9396E-12	-1.22856E+0	28.3617E-3
-204.724E-3	-5.23319E-12	-205.068E-3	-204.724E-3	56.8407E-3	40.0429E-12	-1.18613E+0	24.6960E-3
-216.535E-3	-5.41326E-12	-216.872E-3	-216.535E-3	17.8362E-3	39.9972E-12	-1.19185E+0	25.4224E-3
-228.346E-3	-5.72820E-12	-228.686E-3	-228.346E-3	-68.7713E-3	40.0267E-12	-1.22409E+0	22.7337E-3
-240.157E-3	-5.98612E-12	-240.485E-3	-240.157E-3	-55.2901E-3	39.9771E-12	-1.24126E+0	24.8338E-3
-251.969E-3	-6.13628E-12	-252.315E-3	-251.969E-3	-39.3860E-3	39.9438E-12	-1.25646E+0	29.0249E-3
-263.780E-3	-6.46957E-12	-264.072E-3	-263.780E-3	-33.7456E-3	39.9898E-12	-1.25919E+0	23.8749E-3
-275.591E-3	-6.71794E-12	-275.881E-3	-275.591E-3	-50.2256E-3	40.1070E-12	-1.28819E+0	22.0538E-3
-287.402E-3	-7.00015E-12	-287.724E-3	-287.402E-3	-86.7587E-3	40.0220E-12	-1.31144E+0	22.0569E-3
-299.213E-3	-7.22327E-12	-299.517E-3	-299.213E-3	33.4180E-3	39.9283E-12	-1.29341E+0	28.7481E-3
-311.024E-3	-7.57365E-12	-311.347E-3	-311.024E-3	2.24575E-3	39.9916E-12	-1.30327E+0	29.5391E-3
-322.835E-3	-7.76616E-12	-323.142E-3	-322.835E-3	-68.5446E-3	39.9922E-12	-1.33513E+0	26.1371E-3
-334.646E-3	-8.07800E-12	-334.913E-3	-334.646E-3	-72.9888E-3	40.0283E-12	-1.35990E+0	28.3733E-3
-346.457E-3	-8.30708E-12	-346.730E-3	-346.457E-3	12.9360E-3	39.9987E-12	-1.34039E+0	27.5706E-3
-358.268E-3	-8.53240E-12	-358.576E-3	-358.268E-3	68.5738E-3	40.0350E-12	-1.30200E+0	23.9333E-3
-370.079E-3	-8.77708E-12	-370.373E-3	-370.079E-3	-56.6336E-3	40.0421E-12	-1.34552E+0	26.5213E-3
-381.890E-3	-9.00350E-12	-382.145E-3	-381.890E-3	34.2513E-3	39.9463E-12	-1.34690E+0	27.7842E-3
-393.701E-3	-9.30368E-12	-394.005E-3	-393.701E-3	-124.760E-3	40.0692E-12	-1.40517E+0	26.9381E-3
-405.512E-3	-9.46292E-12	-405.821E-3	-405.512E-3	-152.620E-3	39.8781E-12	-1.42941E+0	31.1880E-3
-417.323E-3	-10.0501E-12	-417.618E-3	-417.323E-3	-35.8288E-3	39.9957E-12	-1.42691E+0	27.5131E-3
-429.134E-3	-10.1864E-12	-429.425E-3	-429.134E-3	-35.4556E-3	40.0157E-12	-1.44108E+0	29.0622E-3
-440.945E-3	-10.6318E-12	-441.229E-3	-440.945E-3	86.5210E-3	40.0126E-12	-1.38606E+0	28.6867E-3
-452.756E-3	-10.9388E-12	-453.031E-3	-452.756E-3	-59.3544E-3	39.9984E-12	-1.45658E+0	28.4616E-3
-464.567E-3	-11.2926E-12	-464.862E-3	-464.567E-3	74.9162E-3	39.9873E-12	-1.41961E+0	26.1302E-3
-476.378E-3	-11.5103E-12	-476.681E-3	-476.378E-3	-40.5429E-3	40.0383E-12	-1.45866E+0	30.0101E-3
-488.189E-3	-11.6547E-12	-488.423E-3	-488.189E-3	-133.866E-3	39.9550E-12	-1.49080E+0	28.5387E-3
-500.000E-3	-11.9757E-12	-500.257E-3	-500.000E-3	-198.306E-3	40.0473E-12	-1.53265E+0	24.4839E-3
