Experiment	bias spectroscopy	
Date	01.12.2015 02:55:51	
User		
X (m)	281.056E-9	
Y (m)	-139.121E-9	
Z (m)	-4.07703E-9	
Z offset (m)	0E+0	
Settling time (s)	30E-3	
Integration time (s)	200E-3	
Z-Ctrl hold	TRUE	
Final Z (m)	-4.07703E-9	
Filter type	None	
Order		
Cutoff frq		
Current (A)	52.9229E-12	
Z (m)	-4.07703E-9	
Phase (deg)	-112.506E-3	
Amplitude (m)	40.3756E-12	
Frequency Shift (Hz)	-1.14741E+0	
Excitation (V)	4.43195E-3	

[DATA]
Bias calc (V)	Current (A)	Applied Voltage measured (V)	Bias (V)	Phase (deg)	Amplitude (m)	Frequency Shift (Hz)	Excitation (V)
1.00000E+0	52.8835E-12	999.333E-3	1.00000E+0	-108.139E-3	39.9892E-12	-1.18695E+0	21.1648E-3
988.189E-3	52.3729E-12	987.538E-3	988.189E-3	-33.8481E-3	39.9982E-12	-1.17059E+0	24.3863E-3
976.378E-3	51.5916E-12	975.774E-3	976.378E-3	92.8372E-3	40.0132E-12	-1.11017E+0	25.7055E-3
964.567E-3	50.7638E-12	963.900E-3	964.567E-3	130.543E-3	39.9114E-12	-1.09873E+0	28.4436E-3
952.756E-3	50.6049E-12	952.146E-3	952.756E-3	60.0496E-3	39.9963E-12	-1.09078E+0	24.6688E-3
940.945E-3	49.6249E-12	940.316E-3	940.945E-3	-45.6953E-3	40.0488E-12	-1.11666E+0	25.8414E-3
929.134E-3	49.3336E-12	928.491E-3	929.134E-3	66.2657E-3	40.0961E-12	-1.07039E+0	22.0255E-3
917.323E-3	48.5286E-12	916.741E-3	917.323E-3	8.98982E-3	39.9833E-12	-1.08645E+0	26.6551E-3
905.512E-3	47.8694E-12	904.878E-3	905.512E-3	121.932E-3	40.0605E-12	-1.05513E+0	23.2680E-3
893.701E-3	47.2169E-12	893.122E-3	893.701E-3	165.844E-3	39.9142E-12	-1.01651E+0	25.2044E-3
881.890E-3	46.9037E-12	881.277E-3	881.890E-3	7.92884E-3	40.1322E-12	-1.03775E+0	20.2541E-3
870.079E-3	46.0212E-12	869.482E-3	870.079E-3	-15.4597E-3	40.0062E-12	-1.06410E+0	24.7637E-3
858.268E-3	45.3964E-12	857.656E-3	858.268E-3	50.3467E-3	39.9668E-12	-1.04009E+0	25.3725E-3
846.457E-3	44.9999E-12	845.828E-3	846.457E-3	4.97966E-3	40.0686E-12	-1.03338E+0	23.3078E-3
834.646E-3	44.3723E-12	834.048E-3	834.646E-3	-127.951E-3	39.9916E-12	-1.10140E+0	25.0852E-3
822.835E-3	43.6462E-12	822.235E-3	822.835E-3	-153.451E-3	39.9884E-12	-1.13563E+0	24.4336E-3
811.024E-3	42.9319E-12	810.413E-3	811.024E-3	135.693E-3	40.0398E-12	-1.04138E+0	25.3616E-3
799.213E-3	42.5165E-12	798.641E-3	799.213E-3	80.8122E-3	40.0645E-12	-1.03154E+0	24.0483E-3
787.402E-3	41.6020E-12	786.812E-3	787.402E-3	156.471E-3	39.9721E-12	-996.768E-3	27.5818E-3
775.591E-3	41.1349E-12	775.027E-3	775.591E-3	-85.0676E-3	39.9523E-12	-1.05072E+0	26.9215E-3
763.780E-3	40.1437E-12	763.200E-3	763.780E-3	-41.2811E-3	39.9939E-12	-1.05705E+0	26.2799E-3
751.969E-3	39.4754E-12	751.431E-3	751.969E-3	-18.9207E-3	40.0168E-12	-1.06650E+0	23.8670E-3
740.157E-3	39.4026E-12	739.624E-3	740.157E-3	16.4600E-3	40.0360E-12	-1.04700E+0	24.2541E-3
728.346E-3	38.5167E-12	727.786E-3	728.346E-3	-81.6170E-3	40.0036E-12	-1.07915E+0	23.1198E-3
716.535E-3	37.9421E-12	715.998E-3	716.535E-3	92.4330E-3	40.0188E-12	-1.03288E+0	27.5248E-3
704.724E-3	37.1059E-12	704.312E-3	704.724E-3	28.5801E-3	39.9620E-12	-1.03758E+0	23.2557E-3
692.913E-3	36.5686E-12	692.519E-3	692.913E-3	18.1481E-3	40.0011E-12	-1.02553E+0	25.6444E-3
681.102E-3	35.9415E-12	680.744E-3	681.102E-3	23.3766E-3	39.9708E-12	-1.02829E+0	26.8328E-3
669.291E-3	35.4057E-12	668.924E-3	669.291E-3	-18.7562E-3	40.0147E-12	-1.04020E+0	24.4338E-3
657.480E-3	34.6756E-12	657.094E-3	657.480E-3	54.5293E-3	40.0312E-12	-1.00928E+0	22.4916E-3
645.669E-3	33.9980E-12	645.274E-3	645.669E-3	112.486E-3	40.0040E-12	-973.570E-3	22.7783E-3
633.858E-3	33.3352E-12	633.468E-3	633.858E-3	-28.6682E-3	39.9341E-12	-1.04085E+0	27.0867E-3
622.047E-3	32.9418E-12	621.662E-3	622.047E-3	25.5551E-3	40.0069E-12	-1.03528E+0	25.4876E-3
610.236E-3	32.0571E-12	609.898E-3	610.236E-3	-18.9595E-3	39.9828E-12	-1.03492E+0	24.7323E-3
598.425E-3	31.2030E-12	598.087E-3	598.425E-3	-25.7185E-3	39.9794E-12	-1.05295E+0	25.9307E-3
586.614E-3	30.5492E-12	586.279E-3	586.614E-3	82.8384E-3	40.0359E-12	-1.01932E+0	25.2335E-3
574.803E-3	29.9984E-12	574.460E-3	574.803E-3	164.252E-3	40.0176E-12	-989.616E-3	25.8633E-3
562.992E-3	29.2552E-12	562.682E-3	562.992E-3	-45.5626E-3	39.9718E-12	-1.02674E+0	27.2718E-3
551.181E-3	28.8212E-12	550.872E-3	551.181E-3	37.1036E-3	40.0548E-12	-1.01777E+0	25.6172E-3
539.370E-3	27.9912E-12	539.003E-3	539.370E-3	-108.940E-3	40.0428E-12	-1.05437E+0	22.1784E-3
527.559E-3	27.2592E-12	527.213E-3	527.559E-3	-53.0254E-3	39.9367E-12	-1.05419E+0	27.4906E-3
515.748E-3	26.9585E-12	515.381E-3	515.748E-3	-49.3296E-3	40.0310E-12	-1.06761E+0	25.4340E-3
503.937E-3	25.9826E-12	503.596E-3	503.937E-3	71.6662E-3	40.0174E-12	-1.01933E+0	24.7523E-3
492.126E-3	25.5532E-12	491.770E-3	492.126E-3	23.6239E-3	40.0520E-12	-1.01115E+0	24.7669E-3
480.315E-3	24.7418E-12	479.953E-3	480.315E-3	-50.8010E-3	39.9612E-12	-1.05395E+0	26.4513E-3
468.504E-3	24.0832E-12	468.159E-3	468.504E-3	40.5481E-3	39.9698E-12	-1.04533E+0	27.2398E-3
456.693E-3	23.5294E-12	456.346E-3	456.693E-3	24.9160E-3	40.0230E-12	-1.05363E+0	23.9110E-3
444.882E-3	22.9071E-12	444.583E-3	444.882E-3	-26.5471E-3	39.9861E-12	-1.07313E+0	21.7330E-3
433.071E-3	21.9719E-12	432.750E-3	433.071E-3	5.68359E-3	39.9083E-12	-1.08446E+0	26.6458E-3
421.260E-3	21.5126E-12	420.941E-3	421.260E-3	93.7958E-3	40.0039E-12	-1.04964E+0	25.7676E-3
409.449E-3	20.7950E-12	409.160E-3	409.449E-3	-5.11059E-3	40.0390E-12	-1.07328E+0	26.0318E-3
397.638E-3	20.0862E-12	397.322E-3	397.638E-3	44.9509E-3	40.0093E-12	-1.03961E+0	25.6613E-3
385.827E-3	19.8259E-12	385.558E-3	385.827E-3	-15.2207E-3	40.0216E-12	-1.05902E+0	26.9236E-3
374.016E-3	18.8886E-12	373.716E-3	374.016E-3	109.159E-3	40.0210E-12	-1.02182E+0	27.2664E-3
362.205E-3	18.2781E-12	361.919E-3	362.205E-3	38.0602E-3	39.9630E-12	-1.04818E+0	25.7341E-3
350.394E-3	17.5334E-12	350.163E-3	350.394E-3	21.4144E-3	39.9819E-12	-1.05581E+0	29.4105E-3
338.583E-3	16.9900E-12	338.307E-3	338.583E-3	-31.1520E-3	40.0641E-12	-1.04661E+0	26.4510E-3
326.772E-3	16.2589E-12	326.523E-3	326.772E-3	109.518E-3	39.9851E-12	-1.02730E+0	23.7102E-3
314.961E-3	15.7792E-12	314.687E-3	314.961E-3	39.1220E-3	39.9699E-12	-1.04554E+0	27.9796E-3
303.150E-3	15.2197E-12	302.869E-3	303.150E-3	-140.767E-3	39.9946E-12	-1.11245E+0	24.8740E-3
291.339E-3	14.5640E-12	291.121E-3	291.339E-3	73.0672E-3	40.0358E-12	-1.05605E+0	24.6039E-3
279.528E-3	13.9124E-12	279.299E-3	279.528E-3	88.8784E-3	39.9690E-12	-1.02499E+0	23.7147E-3
267.717E-3	13.2397E-12	267.484E-3	267.717E-3	-114.632E-3	40.0834E-12	-1.09620E+0	22.7823E-3
255.906E-3	12.6725E-12	255.659E-3	255.906E-3	5.76039E-3	39.9668E-12	-1.08625E+0	24.6996E-3
244.094E-3	12.0011E-12	243.882E-3	244.094E-3	-193.221E-3	40.0001E-12	-1.17114E+0	26.7810E-3
232.283E-3	11.4558E-12	232.023E-3	232.283E-3	139.552E-3	39.9988E-12	-1.07110E+0	23.4609E-3
220.472E-3	10.8337E-12	220.191E-3	220.472E-3	65.5871E-3	40.0021E-12	-1.07913E+0	26.3321E-3
208.661E-3	10.1629E-12	208.416E-3	208.661E-3	-125.578E-3	40.0150E-12	-1.13125E+0	23.7536E-3
196.850E-3	9.48368E-12	196.570E-3	196.850E-3	-21.1130E-3	39.9702E-12	-1.12488E+0	23.8049E-3
185.039E-3	9.02717E-12	184.811E-3	185.039E-3	-7.88780E-3	39.9866E-12	-1.11261E+0	27.0932E-3
173.228E-3	8.28585E-12	173.002E-3	173.228E-3	99.3827E-3	40.0277E-12	-1.08126E+0	23.7840E-3
161.417E-3	7.76900E-12	161.161E-3	161.417E-3	-83.4854E-3	40.0033E-12	-1.13481E+0	22.9850E-3
149.606E-3	7.19873E-12	149.338E-3	149.606E-3	-86.9366E-3	39.9882E-12	-1.15793E+0	24.9353E-3
137.795E-3	6.62522E-12	137.548E-3	137.795E-3	-22.6883E-3	40.0018E-12	-1.14727E+0	26.9245E-3
125.984E-3	5.97195E-12	125.777E-3	125.984E-3	-173.595E-3	40.0101E-12	-1.18516E+0	25.3843E-3
114.173E-3	5.38671E-12	113.946E-3	114.173E-3	-23.7509E-3	39.9588E-12	-1.15624E+0	28.0208E-3
102.362E-3	4.84094E-12	102.143E-3	102.362E-3	36.0844E-3	40.0332E-12	-1.14022E+0	24.0374E-3
90.5512E-3	4.26174E-12	90.3332E-3	90.5512E-3	-70.4400E-3	39.9786E-12	-1.19388E+0	28.5879E-3
78.7402E-3	3.68552E-12	78.5025E-3	78.7402E-3	-130.235E-3	39.9672E-12	-1.23070E+0	26.4048E-3
66.9291E-3	3.13544E-12	66.6376E-3	66.9291E-3	239.835E-3	39.9950E-12	-1.11993E+0	26.0207E-3
55.1181E-3	2.55885E-12	54.8629E-3	55.1181E-3	19.8924E-3	39.9420E-12	-1.16691E+0	26.4966E-3
43.3071E-3	1.95605E-12	43.0384E-3	43.3071E-3	-59.7777E-3	40.0217E-12	-1.21742E+0	23.5744E-3
31.4961E-3	1.41309E-12	31.2043E-3	31.4961E-3	135.370E-3	39.9984E-12	-1.17307E+0	27.1717E-3
19.6850E-3	829.655E-15	19.4139E-3	19.6850E-3	-71.5761E-3	39.8894E-12	-1.22947E+0	28.8218E-3
7.87402E-3	278.493E-15	7.55289E-3	7.87402E-3	-63.8315E-3	39.9896E-12	-1.24874E+0	27.1150E-3
-3.93701E-3	-293.718E-15	-4.32654E-3	-3.93701E-3	15.6140E-3	40.1013E-12	-1.22475E+0	20.8939E-3
-15.7480E-3	-868.289E-15	-16.1111E-3	-15.7480E-3	-45.7235E-3	39.8886E-12	-1.24893E+0	29.2066E-3
-27.5591E-3	-1.50573E-12	-27.9239E-3	-27.5591E-3	9.73938E-3	39.9781E-12	-1.23735E+0	29.5670E-3
-39.3701E-3	-2.12320E-12	-39.6944E-3	-39.3701E-3	90.0106E-3	40.0739E-12	-1.19170E+0	21.9362E-3
-51.1811E-3	-2.68882E-12	-51.5448E-3	-51.1811E-3	-86.9975E-3	39.9815E-12	-1.26540E+0	27.1073E-3
-62.9921E-3	-3.26969E-12	-63.3094E-3	-62.9921E-3	-146.073E-3	39.9998E-12	-1.29207E+0	26.2270E-3
-74.8032E-3	-3.75867E-12	-75.1440E-3	-74.8032E-3	68.2245E-3	39.9936E-12	-1.24942E+0	23.7696E-3
-86.6142E-3	-3.97619E-12	-87.0090E-3	-86.6142E-3	-140.080E-3	39.9546E-12	-1.31480E+0	29.0853E-3
-98.4252E-3	-4.24671E-12	-98.7792E-3	-98.4252E-3	35.6676E-3	40.0174E-12	-1.28352E+0	27.6309E-3
-110.236E-3	-4.50153E-12	-110.627E-3	-110.236E-3	-94.1111E-3	39.9403E-12	-1.34755E+0	28.5884E-3
-122.047E-3	-4.91668E-12	-122.380E-3	-122.047E-3	-60.8397E-3	40.0579E-12	-1.34460E+0	26.4680E-3
-133.858E-3	-5.11601E-12	-134.232E-3	-133.858E-3	68.7624E-3	40.0217E-12	-1.31056E+0	26.5720E-3
-145.669E-3	-5.49989E-12	-146.034E-3	-145.669E-3	-85.3380E-3	39.9772E-12	-1.36132E+0	27.2265E-3
-157.480E-3	-5.88546E-12	-157.813E-3	-157.480E-3	144.415E-3	40.0311E-12	-1.27152E+0	26.1321E-3
-169.291E-3	-6.24924E-12	-169.676E-3	-169.291E-3	-89.0030E-3	39.9657E-12	-1.33379E+0	29.6322E-3
-181.102E-3	-6.60767E-12	-181.428E-3	-181.102E-3	-117.206E-3	39.9560E-12	-1.36146E+0	28.6358E-3
-192.913E-3	-6.85261E-12	-193.241E-3	-192.913E-3	-7.46458E-3	39.9977E-12	-1.35168E+0	26.9870E-3
-204.724E-3	-7.24340E-12	-205.060E-3	-204.724E-3	-37.0842E-3	39.9773E-12	-1.37530E+0	25.8856E-3
-216.535E-3	-7.61028E-12	-216.857E-3	-216.535E-3	-74.7191E-3	40.0320E-12	-1.38311E+0	25.1700E-3
-228.346E-3	-7.87231E-12	-228.683E-3	-228.346E-3	-100.868E-3	39.9569E-12	-1.41492E+0	27.4271E-3
-240.157E-3	-8.31324E-12	-240.480E-3	-240.157E-3	-21.9917E-3	40.0083E-12	-1.39524E+0	26.9855E-3
-251.969E-3	-8.83976E-12	-252.307E-3	-251.969E-3	57.2984E-3	40.0802E-12	-1.36844E+0	22.4180E-3
-263.780E-3	-9.14533E-12	-264.079E-3	-263.780E-3	-82.4069E-3	39.9249E-12	-1.41650E+0	28.2470E-3
-275.591E-3	-9.67429E-12	-275.880E-3	-275.591E-3	5.72495E-3	40.0089E-12	-1.40367E+0	23.9864E-3
-287.402E-3	-10.2322E-12	-287.719E-3	-287.402E-3	-241.830E-3	40.0785E-12	-1.49525E+0	22.6081E-3
-299.213E-3	-10.6687E-12	-299.519E-3	-299.213E-3	-76.8276E-3	39.9788E-12	-1.48505E+0	29.4402E-3
-311.024E-3	-11.0244E-12	-311.333E-3	-311.024E-3	-43.2265E-3	39.9307E-12	-1.48174E+0	30.2275E-3
-322.835E-3	-11.6203E-12	-323.125E-3	-322.835E-3	-20.4662E-3	40.0761E-12	-1.47326E+0	24.1383E-3
-334.646E-3	-11.9908E-12	-334.895E-3	-334.646E-3	-78.7850E-3	39.9527E-12	-1.52273E+0	29.0203E-3
-346.457E-3	-12.5312E-12	-346.714E-3	-346.457E-3	75.3421E-3	40.0651E-12	-1.46914E+0	25.6262E-3
-358.268E-3	-12.7148E-12	-358.552E-3	-358.268E-3	-63.4939E-3	40.0548E-12	-1.51448E+0	23.2397E-3
-370.079E-3	-12.9516E-12	-370.356E-3	-370.079E-3	-61.1612E-3	39.9584E-12	-1.52453E+0	27.1686E-3
-381.890E-3	-13.4099E-12	-382.133E-3	-381.890E-3	-52.5260E-3	40.0097E-12	-1.56744E+0	29.1922E-3
-393.701E-3	-13.8027E-12	-394.001E-3	-393.701E-3	160.331E-3	40.0210E-12	-1.50189E+0	25.6387E-3
-405.512E-3	-14.3205E-12	-405.815E-3	-405.512E-3	-32.6671E-3	40.0129E-12	-1.55863E+0	24.5468E-3
-417.323E-3	-14.6969E-12	-417.604E-3	-417.323E-3	-192.469E-3	39.9547E-12	-1.63174E+0	28.9834E-3
-429.134E-3	-15.3237E-12	-429.419E-3	-429.134E-3	121.846E-3	40.0379E-12	-1.55155E+0	28.0394E-3
-440.945E-3	-15.9833E-12	-441.222E-3	-440.945E-3	-111.302E-3	40.0470E-12	-1.63548E+0	26.4505E-3
-452.756E-3	-16.7236E-12	-453.024E-3	-452.756E-3	-81.2931E-3	40.0054E-12	-1.63814E+0	26.6833E-3
-464.567E-3	-17.4262E-12	-464.849E-3	-464.567E-3	-62.8874E-3	40.0590E-12	-1.66981E+0	24.9646E-3
-476.378E-3	-18.1508E-12	-476.668E-3	-476.378E-3	40.0921E-3	39.9872E-12	-1.64398E+0	24.9793E-3
-488.189E-3	-18.9532E-12	-488.391E-3	-488.189E-3	19.0035E-3	39.9536E-12	-1.64999E+0	27.6735E-3
-500.000E-3	-19.4794E-12	-500.237E-3	-500.000E-3	-115.531E-3	39.9637E-12	-1.72997E+0	28.2513E-3
