Experiment	bias spectroscopy	
Date	30.11.2015 18:43:35	
User		
X (m)	28.3822E-9	
Y (m)	-165.671E-9	
Z (m)	-3.75578E-9	
Z offset (m)	0E+0	
Settling time (s)	30E-3	
Integration time (s)	200E-3	
Z-Ctrl hold	TRUE	
Final Z (m)	-3.75578E-9	
Filter type	None	
Order		
Cutoff frq		
Current (A)	47.0343E-12	
Z (m)	-3.75578E-9	
Phase (deg)	-1.05531E+0	
Amplitude (m)	39.9399E-12	
Frequency Shift (Hz)	-1.07834E+0	
Excitation (V)	32.1014E-3	

[DATA]
Bias calc (V)	Current (A)	Applied Voltage measured (V)	Bias (V)	Phase (deg)	Amplitude (m)	Frequency Shift (Hz)	Excitation (V)
1.00000E+0	46.1829E-12	999.339E-3	1.00000E+0	-71.3286E-3	40.0122E-12	-767.633E-3	22.6676E-3
988.189E-3	45.1682E-12	987.535E-3	988.189E-3	215.177E-3	39.9176E-12	-678.545E-3	28.5244E-3
976.378E-3	45.0824E-12	975.772E-3	976.378E-3	191.117E-3	39.9995E-12	-661.085E-3	27.8984E-3
964.567E-3	44.5529E-12	963.906E-3	964.567E-3	70.2396E-3	40.0545E-12	-686.683E-3	24.1133E-3
952.756E-3	43.3136E-12	952.155E-3	952.756E-3	102.011E-3	39.9167E-12	-708.250E-3	26.6135E-3
940.945E-3	43.6540E-12	940.311E-3	940.945E-3	-90.7686E-3	40.0796E-12	-734.488E-3	23.4895E-3
929.134E-3	43.0223E-12	928.492E-3	929.134E-3	96.3653E-3	39.9474E-12	-662.372E-3	26.2459E-3
917.323E-3	43.0552E-12	916.739E-3	917.323E-3	-31.8447E-3	40.0582E-12	-713.410E-3	24.3159E-3
905.512E-3	41.9568E-12	904.884E-3	905.512E-3	-72.4770E-3	40.0327E-12	-705.890E-3	24.2072E-3
893.701E-3	41.7561E-12	893.131E-3	893.701E-3	112.404E-3	40.0424E-12	-668.097E-3	20.3884E-3
881.890E-3	40.8236E-12	881.288E-3	881.890E-3	164.238E-3	39.8705E-12	-639.484E-3	29.3729E-3
870.079E-3	40.8203E-12	869.484E-3	870.079E-3	-91.3079E-3	40.0285E-12	-678.385E-3	26.5353E-3
858.268E-3	40.2460E-12	857.654E-3	858.268E-3	-215.770E-3	40.0156E-12	-746.629E-3	26.5815E-3
846.457E-3	39.3045E-12	845.824E-3	846.457E-3	219.874E-3	40.0316E-12	-619.194E-3	24.3390E-3
834.646E-3	39.3555E-12	834.052E-3	834.646E-3	-78.8510E-3	39.9803E-12	-679.348E-3	27.0540E-3
822.835E-3	38.5103E-12	822.240E-3	822.835E-3	-133.595E-3	40.0466E-12	-721.045E-3	23.2559E-3
811.024E-3	38.4851E-12	810.410E-3	811.024E-3	109.486E-3	40.0182E-12	-628.543E-3	25.1824E-3
799.213E-3	37.7969E-12	798.648E-3	799.213E-3	139.457E-3	40.0084E-12	-593.199E-3	27.3197E-3
787.402E-3	37.9809E-12	786.814E-3	787.402E-3	-143.939E-3	40.0633E-12	-663.623E-3	25.2525E-3
775.591E-3	36.9042E-12	775.022E-3	775.591E-3	-155.432E-3	39.8894E-12	-707.846E-3	24.8530E-3
763.780E-3	36.8932E-12	763.196E-3	763.780E-3	-62.4105E-3	40.0487E-12	-683.191E-3	24.3988E-3
751.969E-3	36.3093E-12	751.418E-3	751.969E-3	119.111E-3	39.9500E-12	-602.269E-3	27.3678E-3
740.157E-3	35.6256E-12	739.629E-3	740.157E-3	188.108E-3	40.0535E-12	-569.692E-3	26.0605E-3
728.346E-3	35.2107E-12	727.790E-3	728.346E-3	-44.0341E-3	40.0012E-12	-648.390E-3	24.3546E-3
716.535E-3	34.2994E-12	716.010E-3	716.535E-3	92.3609E-3	39.9193E-12	-585.207E-3	28.4340E-3
704.724E-3	34.3451E-12	704.308E-3	704.724E-3	5.62013E-3	40.0809E-12	-613.603E-3	24.1550E-3
692.913E-3	33.4588E-12	692.511E-3	692.913E-3	6.28980E-3	39.9320E-12	-612.933E-3	25.8087E-3
681.102E-3	33.1399E-12	680.741E-3	681.102E-3	53.9419E-3	40.0272E-12	-595.509E-3	22.6349E-3
669.291E-3	32.8515E-12	668.918E-3	669.291E-3	-119.657E-3	40.0337E-12	-652.791E-3	23.1890E-3
657.480E-3	32.1694E-12	657.081E-3	657.480E-3	178.474E-3	39.8959E-12	-572.481E-3	29.1358E-3
645.669E-3	31.7223E-12	645.276E-3	645.669E-3	31.8512E-3	39.9998E-12	-619.560E-3	28.0693E-3
633.858E-3	30.9230E-12	633.470E-3	633.858E-3	214.416E-3	39.9726E-12	-553.283E-3	24.9775E-3
622.047E-3	31.0100E-12	621.649E-3	622.047E-3	-171.435E-3	40.0931E-12	-681.677E-3	23.0167E-3
610.236E-3	29.6482E-12	609.891E-3	610.236E-3	-36.7496E-3	39.9693E-12	-661.898E-3	26.7477E-3
598.425E-3	29.4500E-12	598.077E-3	598.425E-3	111.697E-3	39.9942E-12	-596.968E-3	25.3791E-3
586.614E-3	28.8846E-12	586.270E-3	586.614E-3	101.934E-3	39.9806E-12	-583.861E-3	27.2160E-3
574.803E-3	28.2304E-12	574.457E-3	574.803E-3	45.9175E-3	40.0232E-12	-595.969E-3	25.0021E-3
562.992E-3	28.1115E-12	562.678E-3	562.992E-3	123.537E-3	39.9484E-12	-555.337E-3	29.6522E-3
551.181E-3	27.2438E-12	550.864E-3	551.181E-3	21.1879E-3	40.0685E-12	-580.068E-3	22.6572E-3
539.370E-3	26.6776E-12	538.995E-3	539.370E-3	-135.128E-3	40.0037E-12	-635.222E-3	25.8478E-3
527.559E-3	26.3550E-12	527.209E-3	527.559E-3	-122.405E-3	40.0219E-12	-625.488E-3	26.2900E-3
515.748E-3	25.5820E-12	515.374E-3	515.748E-3	-48.4477E-3	39.9815E-12	-630.250E-3	28.1471E-3
503.937E-3	24.9641E-12	503.585E-3	503.937E-3	184.989E-3	39.9251E-12	-545.717E-3	27.0444E-3
492.126E-3	24.8339E-12	491.763E-3	492.126E-3	-120.463E-3	40.0387E-12	-650.170E-3	24.4394E-3
480.315E-3	24.0351E-12	479.956E-3	480.315E-3	22.6948E-3	40.0028E-12	-598.875E-3	26.2195E-3
468.504E-3	23.3993E-12	468.168E-3	468.504E-3	-102.927E-3	40.0007E-12	-643.167E-3	26.2814E-3
456.693E-3	22.9656E-12	456.352E-3	456.693E-3	38.8143E-3	40.0403E-12	-627.159E-3	25.4178E-3
444.882E-3	22.1009E-12	444.584E-3	444.882E-3	35.7334E-3	39.9900E-12	-607.535E-3	26.8812E-3
433.071E-3	21.6774E-12	432.757E-3	433.071E-3	39.1695E-3	39.9444E-12	-612.741E-3	29.2422E-3
421.260E-3	21.3268E-12	420.947E-3	421.260E-3	-124.934E-3	40.0206E-12	-643.842E-3	25.9255E-3
409.449E-3	20.8003E-12	409.166E-3	409.449E-3	11.4676E-3	40.0008E-12	-608.085E-3	25.1689E-3
397.638E-3	20.3201E-12	397.323E-3	397.638E-3	10.8502E-3	40.0257E-12	-591.269E-3	23.6916E-3
385.827E-3	19.9521E-12	385.557E-3	385.827E-3	-51.2207E-3	40.0147E-12	-613.596E-3	25.0095E-3
374.016E-3	18.9715E-12	373.707E-3	374.016E-3	63.6708E-3	39.9180E-12	-593.375E-3	29.6031E-3
362.205E-3	18.8305E-12	361.911E-3	362.205E-3	48.4755E-3	39.9221E-12	-588.388E-3	27.6040E-3
350.394E-3	17.9644E-12	350.174E-3	350.394E-3	-23.0301E-3	40.0719E-12	-617.871E-3	23.6694E-3
338.583E-3	17.1128E-12	338.313E-3	338.583E-3	-123.926E-3	39.9966E-12	-700.103E-3	25.1836E-3
326.772E-3	16.8218E-12	326.524E-3	326.772E-3	181.459E-3	40.0846E-12	-596.821E-3	25.3683E-3
314.961E-3	16.1033E-12	314.695E-3	314.961E-3	-16.4296E-3	39.9908E-12	-648.406E-3	25.5543E-3
303.150E-3	15.5182E-12	302.867E-3	303.150E-3	62.3280E-3	39.9623E-12	-606.768E-3	24.0935E-3
291.339E-3	14.8920E-12	291.118E-3	291.339E-3	-85.7025E-3	40.0248E-12	-669.917E-3	26.9756E-3
279.528E-3	14.1841E-12	279.289E-3	279.528E-3	-9.07282E-3	39.9863E-12	-659.844E-3	25.9755E-3
267.717E-3	13.8469E-12	267.467E-3	267.717E-3	135.617E-3	39.9795E-12	-603.755E-3	26.9597E-3
255.906E-3	13.0239E-12	255.643E-3	255.906E-3	-82.6006E-3	40.0756E-12	-652.280E-3	24.7245E-3
244.094E-3	12.5560E-12	243.866E-3	244.094E-3	-132.628E-3	39.9301E-12	-708.344E-3	29.0122E-3
232.283E-3	11.8474E-12	232.010E-3	232.283E-3	103.355E-3	40.0404E-12	-646.455E-3	24.7658E-3
220.472E-3	11.2969E-12	220.194E-3	220.472E-3	145.254E-3	39.9805E-12	-594.654E-3	25.6218E-3
208.661E-3	10.6243E-12	208.410E-3	208.661E-3	-141.804E-3	39.9928E-12	-698.896E-3	25.1739E-3
196.850E-3	9.88321E-12	196.575E-3	196.850E-3	109.327E-3	39.9600E-12	-633.131E-3	27.8545E-3
185.039E-3	9.29069E-12	184.800E-3	185.039E-3	-125.650E-3	39.9958E-12	-691.332E-3	26.4387E-3
173.228E-3	8.54516E-12	172.989E-3	173.228E-3	80.1342E-3	39.9934E-12	-640.036E-3	27.6843E-3
161.417E-3	8.00575E-12	161.157E-3	161.417E-3	-36.7142E-3	40.0274E-12	-702.939E-3	25.9258E-3
149.606E-3	7.21032E-12	149.340E-3	149.606E-3	-28.6111E-3	40.0014E-12	-697.736E-3	26.8836E-3
137.795E-3	6.53498E-12	137.537E-3	137.795E-3	38.7749E-3	40.0239E-12	-669.529E-3	28.2693E-3
125.984E-3	5.99204E-12	125.779E-3	125.984E-3	59.4746E-3	40.0623E-12	-655.225E-3	25.7484E-3
114.173E-3	5.20821E-12	113.948E-3	114.173E-3	-33.7730E-3	39.9840E-12	-708.581E-3	26.8587E-3
102.362E-3	4.62466E-12	102.139E-3	102.362E-3	-16.1898E-3	39.9299E-12	-723.871E-3	28.3737E-3
90.5512E-3	4.08833E-12	90.3349E-3	90.5512E-3	129.496E-3	39.9953E-12	-664.682E-3	24.6139E-3
78.7402E-3	3.46065E-12	78.4959E-3	78.7402E-3	-225.584E-3	39.9890E-12	-780.429E-3	29.0228E-3
66.9291E-3	2.97105E-12	66.6242E-3	66.9291E-3	-66.8522E-3	40.0067E-12	-750.132E-3	29.1645E-3
55.1181E-3	2.41072E-12	54.8548E-3	55.1181E-3	43.2011E-3	39.9923E-12	-733.624E-3	27.4891E-3
43.3071E-3	1.83661E-12	43.0331E-3	43.3071E-3	19.0569E-3	39.9745E-12	-732.017E-3	25.9121E-3
31.4961E-3	1.32361E-12	31.2014E-3	31.4961E-3	30.1644E-3	39.9656E-12	-722.487E-3	30.3471E-3
19.6850E-3	775.182E-15	19.4088E-3	19.6850E-3	22.3544E-3	40.0033E-12	-724.477E-3	28.2650E-3
7.87402E-3	235.557E-15	7.53867E-3	7.87402E-3	-147.012E-3	39.9949E-12	-788.303E-3	30.1770E-3
-3.93701E-3	-266.907E-15	-4.33607E-3	-3.93701E-3	-31.3834E-3	40.0139E-12	-774.346E-3	25.1457E-3
-15.7480E-3	-744.566E-15	-16.1145E-3	-15.7480E-3	113.603E-3	39.9728E-12	-731.116E-3	26.1771E-3
-27.5591E-3	-1.24111E-12	-27.9193E-3	-27.5591E-3	-195.368E-3	39.9717E-12	-838.434E-3	28.3587E-3
-39.3701E-3	-1.74636E-12	-39.6916E-3	-39.3701E-3	-25.0372E-3	40.0144E-12	-770.617E-3	25.9269E-3
-51.1811E-3	-2.26250E-12	-51.5464E-3	-51.1811E-3	-78.4126E-3	40.0178E-12	-792.826E-3	24.5025E-3
-62.9921E-3	-2.69497E-12	-63.3265E-3	-62.9921E-3	25.5025E-3	39.9648E-12	-782.628E-3	29.3639E-3
-74.8032E-3	-3.06769E-12	-75.1635E-3	-74.8032E-3	-34.0061E-3	40.0486E-12	-780.688E-3	25.9054E-3
-86.6142E-3	-3.23251E-12	-87.0216E-3	-86.6142E-3	-47.3682E-3	39.9613E-12	-794.953E-3	28.9745E-3
-98.4252E-3	-3.39886E-12	-98.7910E-3	-98.4252E-3	79.3918E-3	39.9872E-12	-752.122E-3	27.1322E-3
-110.236E-3	-3.65946E-12	-110.645E-3	-110.236E-3	-83.5557E-3	40.0410E-12	-793.841E-3	25.0915E-3
-122.047E-3	-3.81765E-12	-122.386E-3	-122.047E-3	-91.6304E-3	40.0099E-12	-823.534E-3	24.8688E-3
-133.858E-3	-3.93475E-12	-134.238E-3	-133.858E-3	16.3167E-3	39.9885E-12	-823.614E-3	28.7535E-3
-145.669E-3	-4.12574E-12	-146.041E-3	-145.669E-3	-2.74610E-3	40.0553E-12	-851.611E-3	23.1658E-3
-157.480E-3	-4.18737E-12	-157.813E-3	-157.480E-3	127.683E-3	39.9857E-12	-797.517E-3	26.7558E-3
-169.291E-3	-4.40254E-12	-169.679E-3	-169.291E-3	10.2438E-3	40.0293E-12	-841.609E-3	24.5434E-3
-181.102E-3	-4.51100E-12	-181.424E-3	-181.102E-3	-25.8105E-3	40.0063E-12	-837.465E-3	25.6754E-3
-192.913E-3	-4.69719E-12	-193.240E-3	-192.913E-3	-43.0019E-3	39.9307E-12	-865.923E-3	28.5048E-3
-204.724E-3	-4.92353E-12	-205.076E-3	-204.724E-3	-5.66751E-3	40.0388E-12	-857.249E-3	26.6458E-3
-216.535E-3	-5.12986E-12	-216.869E-3	-216.535E-3	-123.178E-3	39.9851E-12	-914.504E-3	26.4051E-3
-228.346E-3	-5.23824E-12	-228.690E-3	-228.346E-3	-100.720E-3	39.9764E-12	-947.282E-3	28.5901E-3
-240.157E-3	-5.46842E-12	-240.491E-3	-240.157E-3	19.0585E-3	39.9956E-12	-902.540E-3	27.5898E-3
-251.969E-3	-5.61023E-12	-252.311E-3	-251.969E-3	126.056E-3	39.9902E-12	-887.822E-3	28.8339E-3
-263.780E-3	-5.85771E-12	-264.078E-3	-263.780E-3	7.46129E-3	40.0132E-12	-895.953E-3	26.7931E-3
-275.591E-3	-5.95141E-12	-275.890E-3	-275.591E-3	54.0155E-3	40.0400E-12	-898.087E-3	26.3622E-3
-287.402E-3	-6.25194E-12	-287.729E-3	-287.402E-3	-57.0130E-3	40.0084E-12	-928.006E-3	27.5543E-3
-299.213E-3	-6.50470E-12	-299.531E-3	-299.213E-3	-19.1093E-3	40.0721E-12	-941.496E-3	26.4654E-3
-311.024E-3	-6.65609E-12	-311.362E-3	-311.024E-3	-36.7501E-3	40.0189E-12	-947.777E-3	28.5366E-3
-322.835E-3	-6.99737E-12	-323.153E-3	-322.835E-3	-258.277E-3	40.0338E-12	-1.03127E+0	27.4308E-3
-334.646E-3	-7.13420E-12	-334.926E-3	-334.646E-3	15.8872E-3	39.9671E-12	-977.969E-3	28.4649E-3
-346.457E-3	-7.43706E-12	-346.743E-3	-346.457E-3	-4.34078E-3	40.0291E-12	-1.00027E+0	25.5962E-3
-358.268E-3	-7.62431E-12	-358.582E-3	-358.268E-3	-89.7849E-3	39.9491E-12	-1.04074E+0	28.5654E-3
-370.079E-3	-7.88360E-12	-370.380E-3	-370.079E-3	-16.7154E-3	40.0430E-12	-1.03470E+0	24.7882E-3
-381.890E-3	-7.99695E-12	-382.138E-3	-381.890E-3	61.8566E-3	39.9771E-12	-1.00831E+0	27.5893E-3
-393.701E-3	-8.45822E-12	-394.010E-3	-393.701E-3	14.5505E-3	40.0678E-12	-1.00632E+0	23.4945E-3
-405.512E-3	-8.38821E-12	-405.824E-3	-405.512E-3	16.4806E-3	39.9169E-12	-1.01018E+0	28.4231E-3
-417.323E-3	-8.68536E-12	-417.616E-3	-417.323E-3	-124.121E-3	40.0567E-12	-1.07656E+0	26.1789E-3
-429.134E-3	-8.75209E-12	-429.429E-3	-429.134E-3	204.449E-3	40.0253E-12	-970.681E-3	27.5820E-3
-440.945E-3	-9.05971E-12	-441.236E-3	-440.945E-3	-83.0889E-3	40.0015E-12	-1.07528E+0	26.6201E-3
-452.756E-3	-9.23081E-12	-453.037E-3	-452.756E-3	17.0300E-3	40.0268E-12	-1.07159E+0	28.0293E-3
-464.567E-3	-9.28931E-12	-464.864E-3	-464.567E-3	26.1681E-3	40.0502E-12	-1.06435E+0	23.0714E-3
-476.378E-3	-9.30386E-12	-476.688E-3	-476.378E-3	-208.486E-3	39.9837E-12	-1.14799E+0	27.5676E-3
-488.189E-3	-9.64587E-12	-488.415E-3	-488.189E-3	92.5562E-3	40.0269E-12	-1.07218E+0	26.2367E-3
-500.000E-3	-9.52740E-12	-500.260E-3	-500.000E-3	-22.9290E-3	39.9661E-12	-1.09883E+0	28.5253E-3
