Experiment	bias spectroscopy	
Date	30.11.2015 19:39:14	
User		
X (m)	28.9452E-9	
Y (m)	-166.802E-9	
Z (m)	-3.75578E-9	
Z offset (m)	0E+0	
Settling time (s)	30E-3	
Integration time (s)	200E-3	
Z-Ctrl hold	TRUE	
Final Z (m)	-3.75578E-9	
Filter type	None	
Order		
Cutoff frq		
Current (A)	46.5184E-12	
Z (m)	-3.75578E-9	
Phase (deg)	869.406E-3	
Amplitude (m)	40.1588E-12	
Frequency Shift (Hz)	-428.438E-3	
Excitation (V)	15.266E-3	

[DATA]
Bias calc (V)	Current (A)	Applied Voltage measured (V)	Bias (V)	Phase (deg)	Amplitude (m)	Frequency Shift (Hz)	Excitation (V)
1.00000E+0	45.4690E-12	999.316E-3	1.00000E+0	63.7353E-3	39.9896E-12	-680.913E-3	26.5594E-3
988.189E-3	44.8132E-12	987.518E-3	988.189E-3	48.1869E-3	39.9558E-12	-682.059E-3	26.1182E-3
976.378E-3	44.4032E-12	975.760E-3	976.378E-3	36.1807E-3	39.9445E-12	-697.164E-3	28.5812E-3
964.567E-3	43.7586E-12	963.884E-3	964.567E-3	-15.3979E-3	40.0016E-12	-699.508E-3	23.1168E-3
952.756E-3	43.7910E-12	952.136E-3	952.756E-3	97.8462E-3	39.9652E-12	-658.909E-3	26.4063E-3
940.945E-3	43.2109E-12	940.294E-3	940.945E-3	-27.1798E-3	40.0222E-12	-696.527E-3	23.1007E-3
929.134E-3	43.1391E-12	928.476E-3	929.134E-3	60.5821E-3	40.0048E-12	-654.107E-3	25.1563E-3
917.323E-3	42.4691E-12	916.729E-3	917.323E-3	22.4143E-3	40.0637E-12	-679.374E-3	24.8858E-3
905.512E-3	42.2233E-12	904.865E-3	905.512E-3	83.9203E-3	39.9689E-12	-630.161E-3	26.6570E-3
893.701E-3	41.6364E-12	893.122E-3	893.701E-3	-128.511E-3	40.1024E-12	-718.925E-3	20.6612E-3
881.890E-3	41.3092E-12	881.272E-3	881.890E-3	-39.2844E-3	39.9286E-12	-695.236E-3	28.2690E-3
870.079E-3	40.6033E-12	869.466E-3	870.079E-3	-27.9203E-3	40.0235E-12	-720.792E-3	25.3513E-3
858.268E-3	40.3674E-12	857.645E-3	858.268E-3	140.353E-3	40.0638E-12	-645.353E-3	24.3512E-3
846.457E-3	39.9763E-12	845.805E-3	846.457E-3	-23.2229E-3	39.9892E-12	-664.508E-3	26.6126E-3
834.646E-3	39.2199E-12	834.034E-3	834.646E-3	-26.1972E-3	40.0025E-12	-664.141E-3	25.9064E-3
822.835E-3	38.7348E-12	822.219E-3	822.835E-3	41.3417E-3	40.0592E-12	-625.876E-3	24.2888E-3
811.024E-3	38.0495E-12	810.396E-3	811.024E-3	-39.3051E-3	39.9821E-12	-644.283E-3	23.9786E-3
799.213E-3	38.1669E-12	798.625E-3	799.213E-3	-21.5671E-3	39.9619E-12	-636.369E-3	26.9336E-3
787.402E-3	37.6346E-12	786.800E-3	787.402E-3	-38.3954E-3	40.0291E-12	-683.646E-3	25.5057E-3
775.591E-3	37.0433E-12	775.012E-3	775.591E-3	33.4616E-3	39.9698E-12	-646.429E-3	27.2356E-3
763.780E-3	36.5690E-12	763.182E-3	763.780E-3	-39.2230E-3	39.9896E-12	-667.468E-3	26.4155E-3
751.969E-3	36.0605E-12	751.406E-3	751.969E-3	151.731E-3	39.9789E-12	-594.554E-3	26.0052E-3
740.157E-3	35.8790E-12	739.603E-3	740.157E-3	-148.192E-3	40.0760E-12	-679.822E-3	22.8767E-3
728.346E-3	34.8477E-12	727.765E-3	728.346E-3	80.2641E-3	39.9378E-12	-604.406E-3	26.8982E-3
716.535E-3	35.2715E-12	715.974E-3	716.535E-3	-113.140E-3	40.0125E-12	-671.677E-3	25.2455E-3
704.724E-3	34.3129E-12	704.288E-3	704.724E-3	-13.8138E-3	39.9572E-12	-650.658E-3	27.8010E-3
692.913E-3	34.0721E-12	692.488E-3	692.913E-3	78.7995E-3	40.0107E-12	-618.783E-3	24.0756E-3
681.102E-3	33.6040E-12	680.715E-3	681.102E-3	-48.5152E-3	40.0429E-12	-637.073E-3	23.5922E-3
669.291E-3	33.1634E-12	668.896E-3	669.291E-3	6.70907E-3	39.9891E-12	-627.795E-3	24.1230E-3
657.480E-3	32.5040E-12	657.061E-3	657.480E-3	141.677E-3	39.9694E-12	-603.822E-3	24.3688E-3
645.669E-3	32.3243E-12	645.250E-3	645.669E-3	128.616E-3	40.0669E-12	-572.075E-3	25.3179E-3
633.858E-3	31.8764E-12	633.444E-3	633.858E-3	25.8850E-3	40.0296E-12	-599.406E-3	24.9669E-3
622.047E-3	31.1222E-12	621.642E-3	622.047E-3	27.7249E-3	39.9090E-12	-587.863E-3	28.7085E-3
610.236E-3	30.6379E-12	609.879E-3	610.236E-3	-20.9230E-3	40.0035E-12	-603.379E-3	28.4044E-3
598.425E-3	30.1721E-12	598.072E-3	598.425E-3	-138.150E-3	39.9786E-12	-651.859E-3	28.6764E-3
586.614E-3	29.6591E-12	586.253E-3	586.614E-3	-4.91889E-3	40.0081E-12	-616.087E-3	23.8707E-3
574.803E-3	29.3060E-12	574.436E-3	574.803E-3	-40.5423E-3	40.0728E-12	-622.103E-3	23.2260E-3
562.992E-3	28.8750E-12	562.656E-3	562.992E-3	86.9234E-3	40.0801E-12	-558.744E-3	24.8210E-3
551.181E-3	28.2432E-12	550.844E-3	551.181E-3	-36.6597E-3	39.9369E-12	-597.234E-3	28.6192E-3
539.370E-3	28.0047E-12	538.984E-3	539.370E-3	-84.7692E-3	40.0759E-12	-626.255E-3	25.0196E-3
527.559E-3	27.1131E-12	527.195E-3	527.559E-3	-53.4353E-3	39.9935E-12	-635.181E-3	21.8646E-3
515.748E-3	26.2995E-12	515.361E-3	515.748E-3	104.423E-3	39.9729E-12	-587.771E-3	26.5999E-3
503.937E-3	26.0081E-12	503.570E-3	503.937E-3	3.98186E-3	39.9998E-12	-613.724E-3	24.2729E-3
492.126E-3	25.4035E-12	491.748E-3	492.126E-3	-83.2218E-3	40.0585E-12	-654.461E-3	25.2374E-3
480.315E-3	24.8121E-12	479.935E-3	480.315E-3	58.3941E-3	40.0278E-12	-606.320E-3	23.3829E-3
468.504E-3	24.6507E-12	468.146E-3	468.504E-3	-140.269E-3	39.9763E-12	-664.472E-3	25.9912E-3
456.693E-3	23.9019E-12	456.332E-3	456.693E-3	148.110E-3	40.0489E-12	-568.413E-3	26.5650E-3
444.882E-3	23.1044E-12	444.566E-3	444.882E-3	-185.769E-3	39.9116E-12	-654.331E-3	29.0902E-3
433.071E-3	22.9989E-12	432.722E-3	433.071E-3	-90.6111E-3	40.0294E-12	-658.708E-3	24.5719E-3
421.260E-3	22.5248E-12	420.924E-3	421.260E-3	162.896E-3	40.0167E-12	-573.102E-3	27.9606E-3
409.449E-3	21.9890E-12	409.141E-3	409.449E-3	53.7711E-3	40.0103E-12	-574.727E-3	23.9388E-3
397.638E-3	21.2796E-12	397.293E-3	397.638E-3	63.4267E-3	40.0378E-12	-569.400E-3	23.6608E-3
385.827E-3	20.8656E-12	385.537E-3	385.827E-3	-151.063E-3	40.0574E-12	-654.991E-3	24.4302E-3
374.016E-3	20.4578E-12	373.689E-3	374.016E-3	-107.123E-3	40.0337E-12	-658.331E-3	21.7609E-3
362.205E-3	20.4006E-12	361.899E-3	362.205E-3	-187.809E-3	39.9282E-12	-695.615E-3	24.9180E-3
350.394E-3	19.8308E-12	350.152E-3	350.394E-3	61.1956E-3	40.0431E-12	-614.229E-3	25.2672E-3
338.583E-3	18.6892E-12	338.291E-3	338.583E-3	-74.6476E-3	39.9304E-12	-657.907E-3	23.7604E-3
326.772E-3	18.3057E-12	326.504E-3	326.772E-3	-39.0255E-3	40.0825E-12	-650.906E-3	22.5900E-3
314.961E-3	17.4055E-12	314.667E-3	314.961E-3	35.4712E-3	39.9907E-12	-648.649E-3	27.9578E-3
303.150E-3	16.9128E-12	302.850E-3	303.150E-3	8.13439E-3	40.0108E-12	-654.558E-3	23.6667E-3
291.339E-3	16.3465E-12	291.103E-3	291.339E-3	122.083E-3	40.0176E-12	-616.117E-3	23.6791E-3
279.528E-3	15.8341E-12	279.270E-3	279.528E-3	20.9658E-3	40.0343E-12	-628.833E-3	26.0570E-3
267.717E-3	15.3047E-12	267.456E-3	267.717E-3	4.63433E-3	40.0398E-12	-644.295E-3	28.0906E-3
255.906E-3	14.3535E-12	255.634E-3	255.906E-3	68.7672E-3	40.0238E-12	-631.066E-3	23.3566E-3
244.094E-3	13.3984E-12	243.868E-3	244.094E-3	-40.1900E-3	39.9778E-12	-679.360E-3	28.7049E-3
232.283E-3	12.6437E-12	232.010E-3	232.283E-3	26.4037E-3	40.0181E-12	-635.008E-3	23.5130E-3
220.472E-3	11.9202E-12	220.183E-3	220.472E-3	-33.7244E-3	40.0187E-12	-649.468E-3	25.8816E-3
208.661E-3	11.2223E-12	208.406E-3	208.661E-3	-48.2411E-3	39.9704E-12	-680.184E-3	25.7280E-3
196.850E-3	10.5239E-12	196.573E-3	196.850E-3	-67.2907E-3	40.0285E-12	-685.717E-3	24.4655E-3
185.039E-3	9.82990E-12	184.803E-3	185.039E-3	19.8540E-3	40.0166E-12	-667.562E-3	26.6974E-3
173.228E-3	8.99145E-12	172.982E-3	173.228E-3	-103.241E-3	39.9617E-12	-725.978E-3	28.2950E-3
161.417E-3	8.33916E-12	161.143E-3	161.417E-3	-25.0770E-3	40.0391E-12	-712.271E-3	24.1022E-3
149.606E-3	7.67308E-12	149.321E-3	149.606E-3	-75.8905E-3	39.9983E-12	-734.365E-3	27.2294E-3
137.795E-3	6.96391E-12	137.529E-3	137.795E-3	-16.8635E-3	39.9838E-12	-727.898E-3	27.8124E-3
125.984E-3	6.29557E-12	125.771E-3	125.984E-3	176.199E-3	40.0607E-12	-651.751E-3	26.0251E-3
114.173E-3	5.66981E-12	113.942E-3	114.173E-3	-90.0196E-3	40.0096E-12	-709.908E-3	25.6095E-3
102.362E-3	4.99218E-12	102.130E-3	102.362E-3	-134.418E-3	39.9106E-12	-751.999E-3	28.2317E-3
90.5512E-3	4.43302E-12	90.3191E-3	90.5512E-3	43.8888E-3	39.9801E-12	-702.234E-3	25.3998E-3
78.7402E-3	3.85794E-12	78.4860E-3	78.7402E-3	253.066E-6	39.9336E-12	-715.102E-3	28.6772E-3
66.9291E-3	3.24304E-12	66.6090E-3	66.9291E-3	-123.170E-3	39.9800E-12	-769.229E-3	26.1070E-3
55.1181E-3	2.72055E-12	54.8363E-3	55.1181E-3	-93.2608E-3	40.0240E-12	-779.586E-3	27.6833E-3
43.3071E-3	2.15253E-12	43.0162E-3	43.3071E-3	4.20807E-3	40.0831E-12	-751.304E-3	23.7069E-3
31.4961E-3	1.56493E-12	31.1944E-3	31.4961E-3	7.27495E-3	39.9576E-12	-753.733E-3	28.6924E-3
19.6850E-3	974.101E-15	19.3997E-3	19.6850E-3	6.28545E-3	39.9965E-12	-750.291E-3	28.1545E-3
7.87402E-3	348.553E-15	7.54515E-3	7.87402E-3	-22.5263E-3	39.9870E-12	-771.480E-3	31.3599E-3
-3.93701E-3	-308.198E-15	-4.34006E-3	-3.93701E-3	123.254E-3	39.9822E-12	-717.597E-3	25.8896E-3
-15.7480E-3	-966.413E-15	-16.1234E-3	-15.7480E-3	-145.328E-3	39.9966E-12	-798.336E-3	27.3839E-3
-27.5591E-3	-1.58328E-12	-27.9369E-3	-27.5591E-3	-25.6498E-3	39.9712E-12	-785.105E-3	27.5931E-3
-39.3701E-3	-2.11247E-12	-39.7024E-3	-39.3701E-3	-63.3253E-3	39.9824E-12	-792.717E-3	23.4834E-3
-51.1811E-3	-2.58754E-12	-51.5551E-3	-51.1811E-3	34.4431E-3	39.9661E-12	-797.623E-3	30.3652E-3
-62.9921E-3	-3.02457E-12	-63.3288E-3	-62.9921E-3	-117.380E-3	40.0048E-12	-846.473E-3	27.2754E-3
-74.8032E-3	-3.36587E-12	-75.1635E-3	-74.8032E-3	171.595E-3	40.0072E-12	-762.423E-3	26.6957E-3
-86.6142E-3	-3.58814E-12	-87.0251E-3	-86.6142E-3	-92.5666E-3	39.9235E-12	-835.928E-3	30.1519E-3
-98.4252E-3	-3.85760E-12	-98.7903E-3	-98.4252E-3	-11.0070E-3	40.0390E-12	-819.050E-3	25.7993E-3
-110.236E-3	-4.06169E-12	-110.645E-3	-110.236E-3	64.3516E-3	40.0103E-12	-788.455E-3	27.5690E-3
-122.047E-3	-4.21395E-12	-122.387E-3	-122.047E-3	91.5347E-3	40.0037E-12	-769.046E-3	26.0248E-3
-133.858E-3	-4.39541E-12	-134.245E-3	-133.858E-3	-40.9900E-3	39.9522E-12	-834.416E-3	24.7384E-3
-145.669E-3	-4.49076E-12	-146.041E-3	-145.669E-3	7.65767E-3	39.9872E-12	-827.055E-3	29.3450E-3
-157.480E-3	-4.63087E-12	-157.812E-3	-157.480E-3	-160.823E-3	39.9897E-12	-919.484E-3	28.1585E-3
-169.291E-3	-4.80181E-12	-169.690E-3	-169.291E-3	-68.2240E-3	39.9741E-12	-906.581E-3	31.1974E-3
-181.102E-3	-4.98173E-12	-181.434E-3	-181.102E-3	83.2581E-3	40.0127E-12	-839.980E-3	27.8403E-3
-192.913E-3	-5.17705E-12	-193.243E-3	-192.913E-3	9.49136E-3	39.9859E-12	-870.513E-3	27.1712E-3
-204.724E-3	-5.37254E-12	-205.070E-3	-204.724E-3	4.88134E-3	39.9986E-12	-886.877E-3	28.1312E-3
-216.535E-3	-5.58613E-12	-216.873E-3	-216.535E-3	-108.557E-3	40.0199E-12	-945.367E-3	27.6628E-3
-228.346E-3	-5.79174E-12	-228.695E-3	-228.346E-3	69.3029E-3	40.0320E-12	-878.701E-3	24.8913E-3
-240.157E-3	-5.97999E-12	-240.495E-3	-240.157E-3	-12.3248E-3	40.0581E-12	-918.846E-3	26.5997E-3
-251.969E-3	-6.11563E-12	-252.313E-3	-251.969E-3	-105.772E-3	39.9467E-12	-960.327E-3	27.6968E-3
-263.780E-3	-6.38335E-12	-264.083E-3	-263.780E-3	96.3721E-3	39.9780E-12	-889.841E-3	26.4452E-3
-275.591E-3	-6.65504E-12	-275.888E-3	-275.591E-3	-122.180E-3	40.0222E-12	-977.148E-3	26.5307E-3
-287.402E-3	-6.83485E-12	-287.729E-3	-287.402E-3	-18.2519E-3	40.0327E-12	-965.936E-3	25.1505E-3
-299.213E-3	-7.09406E-12	-299.521E-3	-299.213E-3	-75.3978E-3	40.0607E-12	-1.01226E+0	24.9462E-3
-311.024E-3	-7.28056E-12	-311.354E-3	-311.024E-3	49.7165E-3	39.9750E-12	-969.130E-3	26.7540E-3
-322.835E-3	-7.55578E-12	-323.138E-3	-322.835E-3	101.890E-3	40.0160E-12	-941.168E-3	26.1586E-3
-334.646E-3	-7.70669E-12	-334.908E-3	-334.646E-3	41.5956E-3	40.0171E-12	-959.644E-3	24.7683E-3
-346.457E-3	-8.05299E-12	-346.733E-3	-346.457E-3	-239.139E-3	40.0062E-12	-1.05238E+0	24.4994E-3
-358.268E-3	-8.21302E-12	-358.565E-3	-358.268E-3	-4.94731E-3	40.0053E-12	-1.01873E+0	26.9429E-3
-370.079E-3	-8.55146E-12	-370.362E-3	-370.079E-3	30.7366E-3	40.0388E-12	-993.172E-3	23.9168E-3
-381.890E-3	-8.80145E-12	-382.133E-3	-381.890E-3	-102.950E-3	40.0318E-12	-1.06111E+0	28.5200E-3
-393.701E-3	-8.87419E-12	-394.004E-3	-393.701E-3	17.4670E-3	40.0422E-12	-1.02601E+0	24.5684E-3
-405.512E-3	-9.11186E-12	-405.812E-3	-405.512E-3	75.3921E-3	39.9283E-12	-1.02339E+0	27.0021E-3
-417.323E-3	-9.21418E-12	-417.609E-3	-417.323E-3	-93.7776E-3	39.9918E-12	-1.07985E+0	27.7183E-3
-429.134E-3	-9.60251E-12	-429.427E-3	-429.134E-3	-16.9588E-3	40.1215E-12	-1.08456E+0	24.1688E-3
-440.945E-3	-9.75666E-12	-441.230E-3	-440.945E-3	-73.0663E-3	39.9616E-12	-1.10846E+0	26.7102E-3
-452.756E-3	-9.93552E-12	-453.031E-3	-452.756E-3	124.708E-3	40.0063E-12	-1.05188E+0	26.0955E-3
-464.567E-3	-9.91951E-12	-464.855E-3	-464.567E-3	-2.15253E-3	39.9994E-12	-1.07112E+0	26.6737E-3
-476.378E-3	-10.1638E-12	-476.688E-3	-476.378E-3	40.2110E-3	40.0115E-12	-1.06535E+0	28.4205E-3
-488.189E-3	-10.3829E-12	-488.404E-3	-488.189E-3	-52.3014E-3	40.0742E-12	-1.10743E+0	25.6284E-3
-500.000E-3	-10.6095E-12	-500.247E-3	-500.000E-3	-34.2931E-3	39.9360E-12	-1.12491E+0	28.4328E-3
