Experiment	bias spectroscopy	
Date	01.12.2015 06:12:18	
User		
X (m)	282.003E-9	
Y (m)	-139.093E-9	
Z (m)	-4.07703E-9	
Z offset (m)	0E+0	
Settling time (s)	30E-3	
Integration time (s)	200E-3	
Z-Ctrl hold	TRUE	
Final Z (m)	-4.07703E-9	
Filter type	None	
Order		
Cutoff frq		
Current (A)	15.1116E-12	
Z (m)	-4.07703E-9	
Phase (deg)	-182.082E-3	
Amplitude (m)	39.9732E-12	
Frequency Shift (Hz)	-1.13718E+0	
Excitation (V)	25.7208E-3	

[DATA]
Bias calc (V)	Current (A)	Applied Voltage measured (V)	Bias (V)	Phase (deg)	Amplitude (m)	Frequency Shift (Hz)	Excitation (V)
1.00000E+0	14.7536E-12	999.334E-3	1.00000E+0	63.6435E-3	39.9999E-12	-1.07032E+0	26.4632E-3
988.189E-3	14.7396E-12	987.544E-3	988.189E-3	57.6667E-3	39.9704E-12	-1.06876E+0	26.7916E-3
976.378E-3	14.6389E-12	975.775E-3	976.378E-3	120.195E-3	40.0007E-12	-1.01596E+0	25.4291E-3
964.567E-3	14.4886E-12	963.911E-3	964.567E-3	-19.8879E-3	39.9862E-12	-1.05329E+0	25.0121E-3
952.756E-3	14.2180E-12	952.148E-3	952.756E-3	160.193E-3	39.9301E-12	-1.00090E+0	27.1019E-3
940.945E-3	14.2086E-12	940.314E-3	940.945E-3	-33.7985E-3	40.0931E-12	-1.05210E+0	24.7374E-3
929.134E-3	14.0771E-12	928.486E-3	929.134E-3	-16.8926E-3	39.9695E-12	-1.05040E+0	27.1660E-3
917.323E-3	14.1125E-12	916.733E-3	917.323E-3	13.3354E-3	39.9578E-12	-1.04976E+0	30.4788E-3
905.512E-3	13.8612E-12	904.875E-3	905.512E-3	64.9363E-3	40.0443E-12	-1.05008E+0	24.3065E-3
893.701E-3	13.4667E-12	893.123E-3	893.701E-3	-30.7197E-3	39.9680E-12	-1.04638E+0	27.2260E-3
881.890E-3	13.6596E-12	881.284E-3	881.890E-3	-7.34175E-3	39.9851E-12	-1.02313E+0	26.5091E-3
870.079E-3	13.6098E-12	869.472E-3	870.079E-3	6.36494E-3	40.0122E-12	-1.02777E+0	24.7070E-3
858.268E-3	13.3084E-12	857.648E-3	858.268E-3	-5.12867E-3	40.0252E-12	-1.01081E+0	24.5371E-3
846.457E-3	13.2779E-12	845.820E-3	846.457E-3	28.2467E-3	39.9947E-12	-1.01778E+0	24.4741E-3
834.646E-3	12.9879E-12	834.053E-3	834.646E-3	-120.152E-3	40.0341E-12	-1.06059E+0	24.5570E-3
822.835E-3	12.9433E-12	822.237E-3	822.835E-3	54.8656E-3	40.0024E-12	-1.01730E+0	25.1613E-3
811.024E-3	12.7199E-12	810.413E-3	811.024E-3	152.708E-3	39.9804E-12	-981.375E-3	26.1925E-3
799.213E-3	12.6168E-12	798.647E-3	799.213E-3	-74.8794E-3	39.9668E-12	-1.02884E+0	24.6072E-3
787.402E-3	12.5121E-12	786.813E-3	787.402E-3	87.3929E-3	40.0067E-12	-970.307E-3	27.3095E-3
775.591E-3	12.3461E-12	775.009E-3	775.591E-3	24.4898E-3	39.9787E-12	-970.326E-3	23.7039E-3
763.780E-3	12.1310E-12	763.191E-3	763.780E-3	-72.7338E-3	40.0090E-12	-1.01105E+0	25.1611E-3
751.969E-3	12.0745E-12	751.417E-3	751.969E-3	111.970E-3	40.0033E-12	-953.240E-3	26.8680E-3
740.157E-3	11.9632E-12	739.611E-3	740.157E-3	35.9002E-3	40.0387E-12	-954.556E-3	22.0950E-3
728.346E-3	11.7732E-12	727.773E-3	728.346E-3	86.2326E-3	39.9801E-12	-924.565E-3	22.4255E-3
716.535E-3	11.7746E-12	715.986E-3	716.535E-3	-168.668E-3	40.0402E-12	-1.00228E+0	24.9113E-3
704.724E-3	11.6064E-12	704.299E-3	704.724E-3	78.7414E-3	40.0423E-12	-966.633E-3	23.8340E-3
692.913E-3	11.3158E-12	692.510E-3	692.913E-3	98.2365E-3	40.0074E-12	-934.208E-3	23.8778E-3
681.102E-3	11.2093E-12	680.730E-3	681.102E-3	47.7047E-3	39.9771E-12	-933.021E-3	28.4483E-3
669.291E-3	11.1487E-12	668.914E-3	669.291E-3	-19.1176E-3	39.9891E-12	-942.134E-3	27.4341E-3
657.480E-3	11.0498E-12	657.074E-3	657.480E-3	-44.2208E-3	40.0328E-12	-971.967E-3	24.6873E-3
645.669E-3	10.7730E-12	645.271E-3	645.669E-3	27.7503E-3	39.9689E-12	-945.637E-3	25.3031E-3
633.858E-3	10.5895E-12	633.467E-3	633.858E-3	122.753E-3	40.0219E-12	-892.531E-3	27.2541E-3
622.047E-3	10.4870E-12	621.662E-3	622.047E-3	-88.3064E-3	39.9992E-12	-964.727E-3	27.0896E-3
610.236E-3	10.3881E-12	609.898E-3	610.236E-3	-27.1703E-3	40.0121E-12	-977.646E-3	22.8768E-3
598.425E-3	10.1669E-12	598.088E-3	598.425E-3	75.6592E-3	39.9655E-12	-897.546E-3	26.1555E-3
586.614E-3	10.1012E-12	586.279E-3	586.614E-3	94.1037E-3	39.9980E-12	-897.215E-3	28.2746E-3
574.803E-3	9.87629E-12	574.461E-3	574.803E-3	-15.2976E-3	39.9906E-12	-943.185E-3	24.7587E-3
562.992E-3	9.77003E-12	562.678E-3	562.992E-3	10.4662E-3	39.9608E-12	-905.852E-3	25.8210E-3
551.181E-3	9.63911E-12	550.864E-3	551.181E-3	-40.8696E-3	39.9876E-12	-939.215E-3	27.0664E-3
539.370E-3	9.40656E-12	538.998E-3	539.370E-3	-220.715E-3	40.0135E-12	-993.981E-3	26.3490E-3
527.559E-3	9.26878E-12	527.212E-3	527.559E-3	-13.1745E-3	40.0412E-12	-964.771E-3	24.4647E-3
515.748E-3	9.14120E-12	515.379E-3	515.748E-3	-10.4670E-3	40.0406E-12	-949.015E-3	23.3644E-3
503.937E-3	8.97110E-12	503.596E-3	503.937E-3	40.2158E-3	40.0514E-12	-944.746E-3	22.5526E-3
492.126E-3	8.68019E-12	491.768E-3	492.126E-3	129.887E-3	40.0087E-12	-909.527E-3	23.4884E-3
480.315E-3	8.47043E-12	479.962E-3	480.315E-3	-39.0469E-3	39.9931E-12	-936.409E-3	25.9499E-3
468.504E-3	8.37560E-12	468.171E-3	468.504E-3	-131.580E-3	39.9887E-12	-997.060E-3	25.3478E-3
456.693E-3	8.13541E-12	456.363E-3	456.693E-3	87.1863E-3	39.9573E-12	-919.367E-3	25.9754E-3
444.882E-3	7.94232E-12	444.590E-3	444.882E-3	-84.9005E-3	40.0138E-12	-941.876E-3	26.4101E-3
433.071E-3	7.75407E-12	432.748E-3	433.071E-3	76.7355E-3	40.0572E-12	-900.894E-3	23.4130E-3
421.260E-3	7.53466E-12	420.949E-3	421.260E-3	-134.641E-3	40.0519E-12	-972.782E-3	24.6497E-3
409.449E-3	7.37106E-12	409.162E-3	409.449E-3	39.7068E-3	39.9450E-12	-940.440E-3	28.2814E-3
397.638E-3	7.18734E-12	397.316E-3	397.638E-3	43.2942E-3	40.0063E-12	-913.124E-3	26.5540E-3
385.827E-3	6.95333E-12	385.557E-3	385.827E-3	-52.2591E-3	40.0229E-12	-943.050E-3	23.7219E-3
374.016E-3	6.83386E-12	373.711E-3	374.016E-3	55.4926E-3	39.9571E-12	-908.496E-3	26.8749E-3
362.205E-3	6.63882E-12	361.917E-3	362.205E-3	-114.484E-3	40.0478E-12	-975.857E-3	25.3858E-3
350.394E-3	6.31688E-12	350.168E-3	350.394E-3	161.091E-3	39.9345E-12	-892.289E-3	28.7942E-3
338.583E-3	6.25019E-12	338.306E-3	338.583E-3	-118.303E-3	40.0255E-12	-988.919E-3	24.9279E-3
326.772E-3	6.06344E-12	326.513E-3	326.772E-3	119.381E-3	40.0511E-12	-918.438E-3	24.7837E-3
314.961E-3	5.82961E-12	314.681E-3	314.961E-3	-156.439E-3	39.9850E-12	-1.02087E+0	27.2307E-3
303.150E-3	5.69335E-12	302.866E-3	303.150E-3	83.2730E-3	40.0532E-12	-943.254E-3	23.4286E-3
291.339E-3	5.52750E-12	291.117E-3	291.339E-3	27.1708E-3	40.0384E-12	-971.614E-3	21.1804E-3
279.528E-3	5.40185E-12	279.292E-3	279.528E-3	37.6678E-3	39.9269E-12	-952.061E-3	27.0890E-3
267.717E-3	5.23208E-12	267.468E-3	267.717E-3	110.997E-3	40.0494E-12	-922.414E-3	23.6395E-3
255.906E-3	4.99485E-12	255.643E-3	255.906E-3	-41.4558E-3	39.9521E-12	-962.016E-3	29.0008E-3
244.094E-3	4.81227E-12	243.868E-3	244.094E-3	-60.9411E-3	39.9835E-12	-980.137E-3	26.6088E-3
232.283E-3	4.59426E-12	232.015E-3	232.283E-3	49.1771E-3	39.9980E-12	-954.262E-3	25.5852E-3
220.472E-3	4.48931E-12	220.179E-3	220.472E-3	6.20890E-3	40.0661E-12	-956.275E-3	25.7497E-3
208.661E-3	4.19760E-12	208.398E-3	208.661E-3	-56.7291E-3	40.0160E-12	-993.723E-3	24.3459E-3
196.850E-3	3.95602E-12	196.573E-3	196.850E-3	-13.7454E-3	40.0305E-12	-999.997E-3	26.6031E-3
185.039E-3	3.82531E-12	184.802E-3	185.039E-3	-133.928E-3	39.9624E-12	-1.04217E+0	27.5981E-3
173.228E-3	3.58682E-12	172.994E-3	173.228E-3	118.966E-3	39.9665E-12	-981.577E-3	26.5378E-3
161.417E-3	3.37183E-12	161.166E-3	161.417E-3	83.3108E-3	39.9775E-12	-996.067E-3	27.1140E-3
149.606E-3	3.18740E-12	149.335E-3	149.606E-3	115.659E-3	39.9729E-12	-977.518E-3	28.5903E-3
137.795E-3	2.92573E-12	137.551E-3	137.795E-3	-21.5417E-3	40.0270E-12	-1.01750E+0	25.2181E-3
125.984E-3	2.70175E-12	125.780E-3	125.984E-3	-33.5856E-3	40.0293E-12	-1.03092E+0	24.0096E-3
114.173E-3	2.47092E-12	113.953E-3	114.173E-3	-9.21122E-3	39.9653E-12	-1.02297E+0	28.7243E-3
102.362E-3	2.21112E-12	102.147E-3	102.362E-3	-141.744E-3	40.0210E-12	-1.06923E+0	24.4226E-3
90.5512E-3	1.96771E-12	90.3277E-3	90.5512E-3	23.6363E-3	39.9995E-12	-1.02935E+0	26.0311E-3
78.7402E-3	1.72935E-12	78.5013E-3	78.7402E-3	-50.0503E-3	40.0510E-12	-1.05739E+0	22.7286E-3
66.9291E-3	1.46819E-12	66.6311E-3	66.9291E-3	-73.6668E-3	39.9546E-12	-1.07937E+0	25.2666E-3
55.1181E-3	1.22742E-12	54.8539E-3	55.1181E-3	-88.7262E-3	40.0191E-12	-1.10606E+0	25.6913E-3
43.3071E-3	944.475E-15	43.0281E-3	43.3071E-3	58.5512E-3	39.9801E-12	-1.04670E+0	26.9824E-3
31.4961E-3	668.316E-15	31.2040E-3	31.4961E-3	-48.9375E-3	39.9722E-12	-1.08337E+0	25.8150E-3
19.6850E-3	392.263E-15	19.3947E-3	19.6850E-3	-1.64513E-3	40.0676E-12	-1.07506E+0	24.9620E-3
7.87402E-3	80.7856E-15	7.53924E-3	7.87402E-3	-170.647E-3	39.9759E-12	-1.14316E+0	26.8164E-3
-3.93701E-3	-231.942E-15	-4.33773E-3	-3.93701E-3	-20.3013E-3	39.9422E-12	-1.12137E+0	27.4692E-3
-15.7480E-3	-551.059E-15	-16.1259E-3	-15.7480E-3	146.985E-3	40.0455E-12	-1.05530E+0	25.1295E-3
-27.5591E-3	-840.218E-15	-27.9234E-3	-27.5591E-3	-68.7345E-3	40.0241E-12	-1.10833E+0	25.4708E-3
-39.3701E-3	-1.15305E-12	-39.6915E-3	-39.3701E-3	-80.6740E-3	39.9963E-12	-1.15374E+0	25.2422E-3
-51.1811E-3	-1.45836E-12	-51.5438E-3	-51.1811E-3	32.4298E-3	40.0040E-12	-1.10769E+0	27.2781E-3
-62.9921E-3	-1.76146E-12	-63.3204E-3	-62.9921E-3	76.5764E-3	39.9744E-12	-1.11618E+0	26.7778E-3
-74.8032E-3	-1.96966E-12	-75.1553E-3	-74.8032E-3	-6.53998E-3	40.0163E-12	-1.14114E+0	26.4632E-3
-86.6142E-3	-2.08950E-12	-87.0158E-3	-86.6142E-3	57.3436E-3	40.0515E-12	-1.12778E+0	24.7077E-3
-98.4252E-3	-2.19261E-12	-98.7859E-3	-98.4252E-3	-23.2842E-3	39.9330E-12	-1.13803E+0	26.6816E-3
-110.236E-3	-2.29831E-12	-110.636E-3	-110.236E-3	-115.788E-3	39.9546E-12	-1.16719E+0	27.8795E-3
-122.047E-3	-2.45823E-12	-122.388E-3	-122.047E-3	-32.8407E-3	40.0224E-12	-1.16810E+0	24.3591E-3
-133.858E-3	-2.59591E-12	-134.244E-3	-133.858E-3	-17.6617E-3	40.0366E-12	-1.17710E+0	25.0183E-3
-145.669E-3	-2.70011E-12	-146.046E-3	-145.669E-3	-20.8600E-3	39.9435E-12	-1.18617E+0	28.2141E-3
-157.480E-3	-2.91143E-12	-157.821E-3	-157.480E-3	39.8879E-3	40.0923E-12	-1.17320E+0	22.0148E-3
-169.291E-3	-3.03325E-12	-169.691E-3	-169.291E-3	-134.315E-3	40.0046E-12	-1.22703E+0	26.8673E-3
-181.102E-3	-3.16187E-12	-181.428E-3	-181.102E-3	55.5878E-3	39.9717E-12	-1.18378E+0	24.9780E-3
-192.913E-3	-3.30839E-12	-193.237E-3	-192.913E-3	144.370E-3	40.0318E-12	-1.15111E+0	25.3795E-3
-204.724E-3	-3.42444E-12	-205.071E-3	-204.724E-3	-85.0988E-3	39.9529E-12	-1.23428E+0	27.7091E-3
-216.535E-3	-3.52228E-12	-216.876E-3	-216.535E-3	-77.8034E-3	40.0398E-12	-1.27357E+0	25.7560E-3
-228.346E-3	-3.66579E-12	-228.699E-3	-228.346E-3	-16.6229E-3	39.9881E-12	-1.25756E+0	26.0727E-3
-240.157E-3	-3.78122E-12	-240.492E-3	-240.157E-3	-41.5439E-3	39.9906E-12	-1.27197E+0	27.2336E-3
-251.969E-3	-3.93010E-12	-252.319E-3	-251.969E-3	105.896E-3	40.0400E-12	-1.21714E+0	27.4614E-3
-263.780E-3	-4.08760E-12	-264.077E-3	-263.780E-3	-50.1539E-3	40.0132E-12	-1.26261E+0	25.3704E-3
-275.591E-3	-4.20789E-12	-275.886E-3	-275.591E-3	-35.5421E-3	39.9620E-12	-1.26491E+0	26.0693E-3
-287.402E-3	-4.37089E-12	-287.717E-3	-287.402E-3	92.3928E-3	40.0907E-12	-1.25248E+0	24.3353E-3
-299.213E-3	-4.53943E-12	-299.504E-3	-299.213E-3	-169.528E-3	40.0209E-12	-1.35248E+0	24.5095E-3
-311.024E-3	-4.62948E-12	-311.332E-3	-311.024E-3	-104.683E-3	40.0342E-12	-1.34516E+0	26.6431E-3
-322.835E-3	-4.77757E-12	-323.140E-3	-322.835E-3	-6.86238E-3	40.0141E-12	-1.32593E+0	24.0801E-3
-334.646E-3	-4.80166E-12	-334.912E-3	-334.646E-3	72.1395E-3	39.9512E-12	-1.30117E+0	27.8521E-3
-346.457E-3	-5.03975E-12	-346.732E-3	-346.457E-3	121.492E-3	40.0004E-12	-1.29988E+0	25.9776E-3
-358.268E-3	-5.06200E-12	-358.565E-3	-358.268E-3	-42.4977E-3	40.0264E-12	-1.34293E+0	24.2268E-3
-370.079E-3	-5.22597E-12	-370.364E-3	-370.079E-3	-7.77643E-3	39.9405E-12	-1.34452E+0	29.2189E-3
-381.890E-3	-5.33313E-12	-382.133E-3	-381.890E-3	-107.412E-3	40.0072E-12	-1.40219E+0	25.6118E-3
-393.701E-3	-5.48711E-12	-394.007E-3	-393.701E-3	-70.4647E-3	39.9594E-12	-1.41964E+0	26.9550E-3
-405.512E-3	-5.57232E-12	-405.812E-3	-405.512E-3	-140.747E-3	40.0137E-12	-1.46611E+0	27.1188E-3
-417.323E-3	-5.71621E-12	-417.616E-3	-417.323E-3	-110.210E-3	39.9271E-12	-1.49350E+0	29.4532E-3
-429.134E-3	-5.98497E-12	-429.421E-3	-429.134E-3	122.169E-3	40.1015E-12	-1.41504E+0	23.9045E-3
-440.945E-3	-6.01514E-12	-441.217E-3	-440.945E-3	-28.0005E-3	39.9450E-12	-1.45324E+0	28.4331E-3
-452.756E-3	-6.15394E-12	-453.032E-3	-452.756E-3	-11.2962E-3	39.8939E-12	-1.46918E+0	28.2549E-3
-464.567E-3	-6.47461E-12	-464.860E-3	-464.567E-3	-11.4294E-3	40.0634E-12	-1.48817E+0	26.4105E-3
-476.378E-3	-6.65434E-12	-476.683E-3	-476.378E-3	-8.67679E-3	39.9815E-12	-1.46691E+0	27.9504E-3
-488.189E-3	-6.98645E-12	-488.408E-3	-488.189E-3	-57.2378E-3	40.0536E-12	-1.49774E+0	22.5144E-3
-500.000E-3	-7.32722E-12	-500.250E-3	-500.000E-3	39.4391E-3	40.0658E-12	-1.47782E+0	25.9121E-3
