Experiment	bias spectroscopy	
Date	01.12.2015 04:43:04	
User		
X (m)	281.577E-9	
Y (m)	-139.11E-9	
Z (m)	-4.07703E-9	
Z offset (m)	0E+0	
Settling time (s)	30E-3	
Integration time (s)	200E-3	
Z-Ctrl hold	TRUE	
Final Z (m)	-4.07703E-9	
Filter type	None	
Order		
Cutoff frq		
Current (A)	15.8121E-12	
Z (m)	-4.07703E-9	
Phase (deg)	279.141E-3	
Amplitude (m)	40.1143E-12	
Frequency Shift (Hz)	-1.01834E+0	
Excitation (V)	26.0759E-3	

[DATA]
Bias calc (V)	Current (A)	Applied Voltage measured (V)	Bias (V)	Phase (deg)	Amplitude (m)	Frequency Shift (Hz)	Excitation (V)
1.00000E+0	15.3186E-12	999.334E-3	1.00000E+0	-65.6805E-3	39.9513E-12	-1.08694E+0	25.7213E-3
988.189E-3	15.2180E-12	987.535E-3	988.189E-3	-54.8040E-3	40.0482E-12	-1.07660E+0	24.9067E-3
976.378E-3	15.0149E-12	975.773E-3	976.378E-3	111.421E-3	39.9322E-12	-1.02199E+0	26.1724E-3
964.567E-3	14.9028E-12	963.909E-3	964.567E-3	-28.7573E-3	40.0562E-12	-1.05903E+0	21.1588E-3
952.756E-3	14.9203E-12	952.154E-3	952.756E-3	48.3004E-3	40.0048E-12	-1.02022E+0	28.0279E-3
940.945E-3	14.8575E-12	940.306E-3	940.945E-3	88.7729E-3	40.0158E-12	-1.00110E+0	26.7497E-3
929.134E-3	14.4173E-12	928.496E-3	929.134E-3	53.8285E-3	39.9764E-12	-1.01567E+0	26.9942E-3
917.323E-3	14.3739E-12	916.741E-3	917.323E-3	-71.0005E-3	39.9919E-12	-1.03027E+0	24.4765E-3
905.512E-3	14.5489E-12	904.885E-3	905.512E-3	-23.8218E-3	40.0995E-12	-1.02573E+0	23.3170E-3
893.701E-3	14.1093E-12	893.128E-3	893.701E-3	-909.581E-6	39.9809E-12	-1.01085E+0	25.4730E-3
881.890E-3	14.0589E-12	881.287E-3	881.890E-3	-128.621E-3	40.0162E-12	-1.09407E+0	24.9731E-3
870.079E-3	13.8296E-12	869.480E-3	870.079E-3	230.480E-3	39.9828E-12	-962.249E-3	25.9099E-3
858.268E-3	13.7117E-12	857.661E-3	858.268E-3	82.0042E-3	40.0108E-12	-962.457E-3	23.1502E-3
846.457E-3	13.5372E-12	845.831E-3	846.457E-3	66.5334E-3	39.9944E-12	-977.642E-3	24.9238E-3
834.646E-3	13.4857E-12	834.048E-3	834.646E-3	-189.826E-3	40.0079E-12	-1.05597E+0	27.1340E-3
822.835E-3	13.4047E-12	822.243E-3	822.835E-3	67.3501E-3	39.9682E-12	-962.849E-3	27.9245E-3
811.024E-3	13.3707E-12	810.410E-3	811.024E-3	-39.8756E-3	39.9983E-12	-991.674E-3	24.8165E-3
799.213E-3	13.1397E-12	798.646E-3	799.213E-3	52.2247E-3	40.0069E-12	-979.830E-3	25.5752E-3
787.402E-3	12.9184E-12	786.814E-3	787.402E-3	-97.5186E-3	39.9977E-12	-1.02355E+0	26.6861E-3
775.591E-3	12.6660E-12	775.032E-3	775.591E-3	34.7336E-3	39.9814E-12	-981.842E-3	25.1433E-3
763.780E-3	12.7172E-12	763.197E-3	763.780E-3	78.7700E-3	40.0366E-12	-975.413E-3	25.0268E-3
751.969E-3	12.6375E-12	751.424E-3	751.969E-3	115.011E-3	39.9641E-12	-935.889E-3	28.2349E-3
740.157E-3	12.4113E-12	739.624E-3	740.157E-3	126.577E-3	39.9612E-12	-893.933E-3	28.0908E-3
728.346E-3	12.2307E-12	727.780E-3	728.346E-3	-56.5788E-3	40.0273E-12	-951.270E-3	24.4098E-3
716.535E-3	12.2221E-12	715.994E-3	716.535E-3	34.4714E-3	39.9238E-12	-932.020E-3	27.5583E-3
704.724E-3	11.9359E-12	704.303E-3	704.724E-3	-27.8478E-3	39.9377E-12	-961.904E-3	27.9170E-3
692.913E-3	11.8717E-12	692.503E-3	692.913E-3	7.62356E-3	40.0459E-12	-964.652E-3	25.3965E-3
681.102E-3	11.7453E-12	680.736E-3	681.102E-3	24.3032E-3	39.9068E-12	-951.182E-3	26.4628E-3
669.291E-3	11.5791E-12	668.924E-3	669.291E-3	50.6673E-3	40.0138E-12	-902.919E-3	26.4169E-3
657.480E-3	11.4257E-12	657.075E-3	657.480E-3	-17.7296E-3	40.0669E-12	-937.320E-3	24.5964E-3
645.669E-3	11.3595E-12	645.269E-3	645.669E-3	32.2828E-3	39.9857E-12	-936.547E-3	25.1195E-3
633.858E-3	11.2729E-12	633.468E-3	633.858E-3	-35.9333E-3	40.0094E-12	-951.592E-3	26.2509E-3
622.047E-3	11.1762E-12	621.664E-3	622.047E-3	83.2708E-3	40.0148E-12	-926.423E-3	26.8583E-3
610.236E-3	10.7713E-12	609.896E-3	610.236E-3	80.3092E-3	39.8969E-12	-911.058E-3	29.3513E-3
598.425E-3	10.7709E-12	598.089E-3	598.425E-3	63.0183E-3	40.0037E-12	-923.089E-3	27.2353E-3
586.614E-3	10.6119E-12	586.281E-3	586.614E-3	30.3639E-3	40.0363E-12	-932.351E-3	25.8738E-3
574.803E-3	10.5015E-12	574.465E-3	574.803E-3	18.0301E-3	40.0848E-12	-940.585E-3	22.0489E-3
562.992E-3	10.2175E-12	562.683E-3	562.992E-3	47.9800E-3	40.0181E-12	-914.381E-3	27.0401E-3
551.181E-3	10.1142E-12	550.860E-3	551.181E-3	-63.7920E-3	39.9334E-12	-939.793E-3	27.2590E-3
539.370E-3	9.94631E-12	538.996E-3	539.370E-3	-51.1331E-3	39.9968E-12	-944.565E-3	25.1478E-3
527.559E-3	9.86812E-12	527.215E-3	527.559E-3	16.2357E-3	40.0448E-12	-927.837E-3	23.1188E-3
515.748E-3	9.63844E-12	515.384E-3	515.748E-3	11.5844E-3	39.9109E-12	-918.537E-3	25.1795E-3
503.937E-3	9.53314E-12	503.594E-3	503.937E-3	-42.3783E-3	40.0406E-12	-947.086E-3	22.2734E-3
492.126E-3	9.18701E-12	491.781E-3	492.126E-3	-85.2066E-3	39.9438E-12	-985.438E-3	26.1042E-3
480.315E-3	9.24741E-12	479.964E-3	480.315E-3	115.094E-3	39.9884E-12	-911.699E-3	25.5073E-3
468.504E-3	8.86568E-12	468.172E-3	468.504E-3	-9.07457E-3	39.9633E-12	-946.596E-3	27.4287E-3
456.693E-3	8.76899E-12	456.360E-3	456.693E-3	-152.967E-3	40.0487E-12	-998.590E-3	25.3179E-3
444.882E-3	8.60392E-12	444.593E-3	444.882E-3	112.443E-3	40.0662E-12	-924.643E-3	23.7052E-3
433.071E-3	8.41751E-12	432.763E-3	433.071E-3	-100.007E-3	39.9521E-12	-972.375E-3	29.3854E-3
421.260E-3	8.15381E-12	420.952E-3	421.260E-3	-54.2192E-3	40.0322E-12	-965.265E-3	23.5453E-3
409.449E-3	8.04811E-12	409.171E-3	409.449E-3	123.125E-3	39.9665E-12	-915.788E-3	29.1417E-3
397.638E-3	7.85558E-12	397.308E-3	397.638E-3	19.2330E-3	40.0182E-12	-943.733E-3	27.8473E-3
385.827E-3	7.66165E-12	385.557E-3	385.827E-3	14.1730E-3	40.0447E-12	-944.753E-3	26.0522E-3
374.016E-3	7.54336E-12	373.706E-3	374.016E-3	37.0484E-3	40.0424E-12	-934.391E-3	27.5501E-3
362.205E-3	7.22849E-12	361.903E-3	362.205E-3	22.5938E-3	39.9220E-12	-938.339E-3	26.1786E-3
350.394E-3	7.05668E-12	350.163E-3	350.394E-3	-13.4669E-3	39.9353E-12	-936.184E-3	26.1494E-3
338.583E-3	6.88455E-12	338.309E-3	338.583E-3	2.08909E-3	40.0948E-12	-946.684E-3	27.5364E-3
326.772E-3	6.73512E-12	326.520E-3	326.772E-3	-10.6066E-3	40.0269E-12	-949.383E-3	25.4466E-3
314.961E-3	6.49225E-12	314.678E-3	314.961E-3	36.7022E-3	40.0373E-12	-922.975E-3	24.2995E-3
303.150E-3	6.31674E-12	302.863E-3	303.150E-3	94.7376E-3	39.9688E-12	-884.297E-3	25.6484E-3
291.339E-3	6.10574E-12	291.113E-3	291.339E-3	-106.498E-3	40.0354E-12	-948.530E-3	25.0245E-3
279.528E-3	5.88629E-12	279.276E-3	279.528E-3	-77.0359E-3	40.0240E-12	-988.373E-3	24.8812E-3
267.717E-3	5.72369E-12	267.476E-3	267.717E-3	-23.4790E-3	40.0409E-12	-963.440E-3	25.0703E-3
255.906E-3	5.50271E-12	255.650E-3	255.906E-3	46.6226E-3	40.0110E-12	-955.939E-3	26.2983E-3
244.094E-3	5.30206E-12	243.879E-3	244.094E-3	-146.360E-3	39.9498E-12	-1.00841E+0	26.9876E-3
232.283E-3	5.09321E-12	232.016E-3	232.283E-3	-61.5438E-3	40.0169E-12	-1.01297E+0	28.1267E-3
220.472E-3	4.83622E-12	220.177E-3	220.472E-3	142.120E-3	40.0644E-12	-965.532E-3	24.2642E-3
208.661E-3	4.58092E-12	208.399E-3	208.661E-3	21.7053E-3	39.9733E-12	-970.721E-3	26.6829E-3
196.850E-3	4.40992E-12	196.569E-3	196.850E-3	5.69198E-3	39.9620E-12	-959.812E-3	27.1266E-3
185.039E-3	4.19306E-12	184.800E-3	185.039E-3	6.53676E-3	40.0100E-12	-987.337E-3	27.2402E-3
173.228E-3	3.94487E-12	172.992E-3	173.228E-3	97.9295E-3	40.0282E-12	-942.298E-3	26.2159E-3
161.417E-3	3.68007E-12	161.160E-3	161.417E-3	-186.723E-3	39.9900E-12	-1.03797E+0	24.9980E-3
149.606E-3	3.48394E-12	149.338E-3	149.606E-3	-5.37782E-3	39.9785E-12	-999.069E-3	26.0439E-3
137.795E-3	3.26334E-12	137.536E-3	137.795E-3	81.4238E-3	40.0027E-12	-959.049E-3	24.1546E-3
125.984E-3	3.01870E-12	125.770E-3	125.984E-3	-57.2104E-3	40.0142E-12	-1.02471E+0	24.0209E-3
114.173E-3	2.69237E-12	113.942E-3	114.173E-3	-73.6760E-3	39.9231E-12	-1.04741E+0	29.3148E-3
102.362E-3	2.44421E-12	102.136E-3	102.362E-3	-32.7431E-3	40.0737E-12	-1.03881E+0	24.8082E-3
90.5512E-3	2.14696E-12	90.3239E-3	90.5512E-3	-59.7550E-3	39.9367E-12	-1.04863E+0	27.5461E-3
78.7402E-3	1.89702E-12	78.4909E-3	78.7402E-3	37.5026E-3	40.0435E-12	-1.03768E+0	25.8288E-3
66.9291E-3	1.57035E-12	66.6277E-3	66.9291E-3	-46.6250E-3	39.9512E-12	-1.06422E+0	28.2459E-3
55.1181E-3	1.27880E-12	54.8547E-3	55.1181E-3	38.2673E-3	40.0467E-12	-1.04612E+0	24.7100E-3
43.3071E-3	963.791E-15	43.0323E-3	43.3071E-3	-105.398E-3	39.8547E-12	-1.08392E+0	31.6653E-3
31.4961E-3	688.723E-15	31.2061E-3	31.4961E-3	3.79633E-3	40.0567E-12	-1.06607E+0	26.9095E-3
19.6850E-3	384.937E-15	19.4055E-3	19.6850E-3	369.871E-6	40.0711E-12	-1.08243E+0	25.1283E-3
7.87402E-3	79.7234E-15	7.55643E-3	7.87402E-3	108.788E-3	39.9689E-12	-1.04239E+0	24.5075E-3
-3.93701E-3	-220.443E-15	-4.32992E-3	-3.93701E-3	29.5489E-3	39.9923E-12	-1.04996E+0	27.1932E-3
-15.7480E-3	-525.733E-15	-16.1150E-3	-15.7480E-3	-40.3460E-3	39.9915E-12	-1.05950E+0	27.8928E-3
-27.5591E-3	-819.181E-15	-27.9289E-3	-27.5591E-3	-125.077E-3	40.0176E-12	-1.09816E+0	27.3445E-3
-39.3701E-3	-1.09515E-12	-39.6990E-3	-39.3701E-3	-129.560E-3	40.0052E-12	-1.12421E+0	27.7595E-3
-51.1811E-3	-1.35511E-12	-51.5564E-3	-51.1811E-3	-19.3170E-3	39.9956E-12	-1.11991E+0	26.4050E-3
-62.9921E-3	-1.64035E-12	-63.3270E-3	-62.9921E-3	113.519E-3	40.0100E-12	-1.08714E+0	25.9038E-3
-74.8032E-3	-1.83347E-12	-75.1613E-3	-74.8032E-3	-129.755E-3	40.0104E-12	-1.14896E+0	24.8075E-3
-86.6142E-3	-1.95759E-12	-87.0197E-3	-86.6142E-3	-9.48236E-3	40.0250E-12	-1.13775E+0	24.2937E-3
-98.4252E-3	-2.10070E-12	-98.7921E-3	-98.4252E-3	82.8994E-3	40.0034E-12	-1.10340E+0	24.1728E-3
-110.236E-3	-2.22351E-12	-110.651E-3	-110.236E-3	-67.9997E-3	40.0766E-12	-1.13131E+0	26.0211E-3
-122.047E-3	-2.34221E-12	-122.389E-3	-122.047E-3	-75.6652E-3	39.9975E-12	-1.16209E+0	25.6552E-3
-133.858E-3	-2.46293E-12	-134.244E-3	-133.858E-3	-21.6979E-3	39.9009E-12	-1.14868E+0	28.0321E-3
-145.669E-3	-2.62123E-12	-146.041E-3	-145.669E-3	26.5669E-3	40.0309E-12	-1.13508E+0	24.6093E-3
-157.480E-3	-2.74491E-12	-157.815E-3	-157.480E-3	-115.671E-3	40.0596E-12	-1.19863E+0	21.7410E-3
-169.291E-3	-2.86495E-12	-169.680E-3	-169.291E-3	25.2068E-3	40.0221E-12	-1.17973E+0	23.2808E-3
-181.102E-3	-2.95022E-12	-181.428E-3	-181.102E-3	3.58572E-3	39.8704E-12	-1.18882E+0	25.9330E-3
-192.913E-3	-3.13672E-12	-193.233E-3	-192.913E-3	-141.110E-3	40.0891E-12	-1.25520E+0	24.4663E-3
-204.724E-3	-3.23694E-12	-205.068E-3	-204.724E-3	-70.0710E-3	40.0105E-12	-1.23772E+0	26.1640E-3
-216.535E-3	-3.39942E-12	-216.877E-3	-216.535E-3	30.4337E-3	40.0227E-12	-1.23625E+0	24.3337E-3
-228.346E-3	-3.48826E-12	-228.689E-3	-228.346E-3	95.4208E-3	39.9439E-12	-1.21070E+0	28.7098E-3
-240.157E-3	-3.60220E-12	-240.490E-3	-240.157E-3	-39.0739E-3	40.0510E-12	-1.25297E+0	25.6052E-3
-251.969E-3	-3.71724E-12	-252.305E-3	-251.969E-3	-75.2753E-3	39.9755E-12	-1.26661E+0	28.1800E-3
-263.780E-3	-3.90800E-12	-264.065E-3	-263.780E-3	1.30585E-3	40.0214E-12	-1.25014E+0	26.6361E-3
-275.591E-3	-4.06135E-12	-275.881E-3	-275.591E-3	-171.840E-3	40.0001E-12	-1.30864E+0	25.1411E-3
-287.402E-3	-4.20249E-12	-287.729E-3	-287.402E-3	62.5006E-3	40.0298E-12	-1.25199E+0	25.3587E-3
-299.213E-3	-4.41810E-12	-299.509E-3	-299.213E-3	-67.3886E-3	39.9978E-12	-1.30095E+0	24.0408E-3
-311.024E-3	-4.59080E-12	-311.333E-3	-311.024E-3	-48.1559E-3	40.0268E-12	-1.31647E+0	24.4007E-3
-322.835E-3	-4.64719E-12	-323.139E-3	-322.835E-3	-100.582E-3	39.9682E-12	-1.34511E+0	27.2693E-3
-334.646E-3	-4.76937E-12	-334.911E-3	-334.646E-3	-66.7383E-3	40.0142E-12	-1.33159E+0	25.7101E-3
-346.457E-3	-4.96353E-12	-346.731E-3	-346.457E-3	-6.42659E-3	40.0531E-12	-1.31722E+0	24.5507E-3
-358.268E-3	-5.08740E-12	-358.570E-3	-358.268E-3	-215.823E-3	40.0065E-12	-1.41279E+0	28.5342E-3
-370.079E-3	-5.28680E-12	-370.363E-3	-370.079E-3	83.3427E-3	40.0495E-12	-1.33298E+0	24.1318E-3
-381.890E-3	-5.33624E-12	-382.135E-3	-381.890E-3	-29.4936E-3	39.9313E-12	-1.38119E+0	26.1533E-3
-393.701E-3	-5.46154E-12	-394.001E-3	-393.701E-3	-13.4476E-3	39.9663E-12	-1.38741E+0	27.4409E-3
-405.512E-3	-5.52882E-12	-405.817E-3	-405.512E-3	13.9649E-3	39.9805E-12	-1.37810E+0	25.2204E-3
-417.323E-3	-5.63070E-12	-417.621E-3	-417.323E-3	26.1913E-3	40.0398E-12	-1.37698E+0	27.1680E-3
-429.134E-3	-5.77206E-12	-429.425E-3	-429.134E-3	-178.263E-3	40.0333E-12	-1.45024E+0	27.0869E-3
-440.945E-3	-5.90110E-12	-441.231E-3	-440.945E-3	29.8550E-3	40.0225E-12	-1.41172E+0	28.0766E-3
-452.756E-3	-6.12492E-12	-453.035E-3	-452.756E-3	-62.3547E-3	39.9685E-12	-1.45264E+0	26.7518E-3
-464.567E-3	-6.44085E-12	-464.857E-3	-464.567E-3	-101.970E-3	39.9922E-12	-1.49585E+0	30.8378E-3
-476.378E-3	-6.68529E-12	-476.690E-3	-476.378E-3	5.85135E-3	40.0397E-12	-1.47881E+0	26.2851E-3
-488.189E-3	-6.99278E-12	-488.410E-3	-488.189E-3	5.96612E-3	39.9794E-12	-1.49737E+0	25.3938E-3
-500.000E-3	-7.12177E-12	-500.247E-3	-500.000E-3	-134.516E-3	40.0099E-12	-1.53959E+0	26.2602E-3
