Experiment	bias spectroscopy	
Date	01.12.2015 03:38:44	
User		
X (m)	281.769E-9	
Y (m)	-139.738E-9	
Z (m)	-4.07703E-9	
Z offset (m)	0E+0	
Settling time (s)	30E-3	
Integration time (s)	200E-3	
Z-Ctrl hold	TRUE	
Final Z (m)	-4.07703E-9	
Filter type	None	
Order		
Cutoff frq		
Current (A)	11.174E-12	
Z (m)	-4.07703E-9	
Phase (deg)	-236.292E-3	
Amplitude (m)	40.1295E-12	
Frequency Shift (Hz)	-1.17802E+0	
Excitation (V)	20.9273E-3	

[DATA]
Bias calc (V)	Current (A)	Applied Voltage measured (V)	Bias (V)	Phase (deg)	Amplitude (m)	Frequency Shift (Hz)	Excitation (V)
1.00000E+0	10.6622E-12	999.331E-3	1.00000E+0	-125.128E-3	39.9037E-12	-1.11200E+0	33.2196E-3
988.189E-3	10.7427E-12	987.540E-3	988.189E-3	29.4736E-3	40.0395E-12	-1.09598E+0	26.2657E-3
976.378E-3	10.5872E-12	975.774E-3	976.378E-3	97.1451E-3	39.9559E-12	-1.06175E+0	26.9494E-3
964.567E-3	10.4972E-12	963.905E-3	964.567E-3	81.9879E-3	39.9852E-12	-1.04322E+0	23.6589E-3
952.756E-3	10.3962E-12	952.151E-3	952.756E-3	-32.3299E-3	39.9602E-12	-1.08825E+0	24.8968E-3
940.945E-3	10.2943E-12	940.318E-3	940.945E-3	33.6435E-3	39.9822E-12	-1.07285E+0	26.4552E-3
929.134E-3	10.1789E-12	928.496E-3	929.134E-3	73.5320E-3	40.0163E-12	-1.03279E+0	24.3611E-3
917.323E-3	10.0602E-12	916.747E-3	917.323E-3	113.411E-3	39.9900E-12	-1.01138E+0	23.7906E-3
905.512E-3	9.97978E-12	904.878E-3	905.512E-3	-29.2513E-3	40.0521E-12	-1.03869E+0	24.2745E-3
893.701E-3	9.92299E-12	893.119E-3	893.701E-3	51.6114E-3	39.9392E-12	-1.01812E+0	26.6327E-3
881.890E-3	9.78047E-12	881.282E-3	881.890E-3	-49.3896E-3	40.0338E-12	-1.05353E+0	24.9630E-3
870.079E-3	9.68803E-12	869.473E-3	870.079E-3	89.7687E-3	40.0466E-12	-1.00266E+0	24.6433E-3
858.268E-3	9.51564E-12	857.655E-3	858.268E-3	-23.6514E-3	39.9038E-12	-1.04220E+0	27.6248E-3
846.457E-3	9.35157E-12	845.823E-3	846.457E-3	-42.2040E-3	40.0273E-12	-1.05330E+0	25.8230E-3
834.646E-3	9.28862E-12	834.049E-3	834.646E-3	89.2531E-3	39.9889E-12	-1.00137E+0	26.5873E-3
822.835E-3	9.34226E-12	822.238E-3	822.835E-3	-5.00147E-3	40.0105E-12	-1.03589E+0	26.7805E-3
811.024E-3	9.14145E-12	810.422E-3	811.024E-3	70.5246E-3	39.9626E-12	-1.00228E+0	25.5216E-3
799.213E-3	9.11829E-12	798.652E-3	799.213E-3	52.8213E-3	40.0231E-12	-993.563E-3	25.9447E-3
787.402E-3	8.89584E-12	786.813E-3	787.402E-3	88.8364E-3	40.0092E-12	-975.288E-3	23.5386E-3
775.591E-3	8.73447E-12	775.037E-3	775.591E-3	81.8057E-3	39.9758E-12	-985.656E-3	26.5720E-3
763.780E-3	8.76621E-12	763.210E-3	763.780E-3	38.7831E-3	40.0430E-12	-980.472E-3	22.4373E-3
751.969E-3	8.54575E-12	751.439E-3	751.969E-3	-48.8750E-3	39.9956E-12	-1.00018E+0	27.2692E-3
740.157E-3	8.50252E-12	739.637E-3	740.157E-3	-69.7385E-3	39.9354E-12	-996.599E-3	25.6692E-3
728.346E-3	8.44441E-12	727.800E-3	728.346E-3	-41.6298E-3	40.0153E-12	-994.238E-3	24.3364E-3
716.535E-3	8.29360E-12	716.009E-3	716.535E-3	37.2305E-3	40.0109E-12	-975.494E-3	25.3361E-3
704.724E-3	8.27594E-12	704.313E-3	704.724E-3	91.8784E-3	40.0275E-12	-951.677E-3	23.9142E-3
692.913E-3	8.14261E-12	692.520E-3	692.913E-3	-24.9019E-3	40.0299E-12	-1.00915E+0	26.0042E-3
681.102E-3	7.96820E-12	680.733E-3	681.102E-3	136.852E-3	40.0239E-12	-949.923E-3	25.1853E-3
669.291E-3	7.92112E-12	668.907E-3	669.291E-3	-14.0167E-3	39.9717E-12	-974.771E-3	26.2710E-3
657.480E-3	7.71183E-12	657.070E-3	657.480E-3	47.7509E-3	39.9365E-12	-969.507E-3	29.1127E-3
645.669E-3	7.63882E-12	645.270E-3	645.669E-3	17.6779E-3	39.9904E-12	-973.135E-3	26.2217E-3
633.858E-3	7.52175E-12	633.463E-3	633.858E-3	-52.8988E-3	40.0051E-12	-978.501E-3	27.7255E-3
622.047E-3	7.38358E-12	621.661E-3	622.047E-3	-39.5120E-3	39.9799E-12	-991.647E-3	26.0307E-3
610.236E-3	7.43842E-12	609.900E-3	610.236E-3	211.879E-3	39.9781E-12	-902.986E-3	26.1086E-3
598.425E-3	7.19571E-12	598.088E-3	598.425E-3	106.014E-3	39.9585E-12	-907.540E-3	26.7872E-3
586.614E-3	7.14346E-12	586.283E-3	586.614E-3	-109.959E-3	40.0992E-12	-983.067E-3	23.9479E-3
574.803E-3	6.94563E-12	574.455E-3	574.803E-3	173.571E-3	40.0209E-12	-897.761E-3	26.9527E-3
562.992E-3	6.90041E-12	562.683E-3	562.992E-3	-313.111E-3	39.9837E-12	-1.06454E+0	26.7238E-3
551.181E-3	6.76651E-12	550.868E-3	551.181E-3	8.01865E-3	39.9964E-12	-995.682E-3	24.9371E-3
539.370E-3	6.66351E-12	539.001E-3	539.370E-3	-41.9356E-3	40.0769E-12	-1.00945E+0	24.2614E-3
527.559E-3	6.55187E-12	527.214E-3	527.559E-3	11.8959E-3	40.0106E-12	-981.477E-3	23.8290E-3
515.748E-3	6.31997E-12	515.382E-3	515.748E-3	-43.5775E-3	39.9334E-12	-987.315E-3	23.1911E-3
503.937E-3	6.33670E-12	503.601E-3	503.937E-3	-115.924E-3	40.0651E-12	-1.01524E+0	23.2868E-3
492.126E-3	6.16126E-12	491.772E-3	492.126E-3	108.773E-3	39.9307E-12	-960.988E-3	27.2607E-3
480.315E-3	6.00578E-12	479.959E-3	480.315E-3	-18.6602E-3	39.9692E-12	-990.702E-3	28.5824E-3
468.504E-3	5.96329E-12	468.166E-3	468.504E-3	13.4506E-3	40.0098E-12	-984.182E-3	25.3366E-3
456.693E-3	5.80692E-12	456.353E-3	456.693E-3	65.2485E-3	39.9865E-12	-951.473E-3	26.3644E-3
444.882E-3	5.61137E-12	444.587E-3	444.882E-3	-53.5410E-3	39.9494E-12	-990.860E-3	27.2039E-3
433.071E-3	5.61573E-12	432.751E-3	433.071E-3	67.4621E-3	40.0106E-12	-948.143E-3	26.5784E-3
421.260E-3	5.47053E-12	420.939E-3	421.260E-3	-70.5425E-3	39.9748E-12	-978.699E-3	25.8181E-3
409.449E-3	5.32278E-12	409.155E-3	409.449E-3	-126.193E-3	39.9639E-12	-1.02861E+0	27.0060E-3
397.638E-3	5.23853E-12	397.303E-3	397.638E-3	134.876E-3	40.0887E-12	-967.488E-3	27.7610E-3
385.827E-3	5.12578E-12	385.543E-3	385.827E-3	18.6634E-3	40.0125E-12	-987.669E-3	23.6305E-3
374.016E-3	4.91087E-12	373.698E-3	374.016E-3	24.5110E-3	39.9672E-12	-970.234E-3	26.8570E-3
362.205E-3	4.80153E-12	361.901E-3	362.205E-3	-14.9967E-3	39.9922E-12	-968.212E-3	26.9627E-3
350.394E-3	4.70523E-12	350.154E-3	350.394E-3	-202.016E-3	39.9803E-12	-1.05228E+0	28.5646E-3
338.583E-3	4.58609E-12	338.305E-3	338.583E-3	6.03027E-3	39.9536E-12	-1.01936E+0	27.6044E-3
326.772E-3	4.47232E-12	326.507E-3	326.772E-3	96.8451E-3	40.0607E-12	-960.067E-3	25.9401E-3
314.961E-3	4.27636E-12	314.674E-3	314.961E-3	-82.3820E-3	39.9997E-12	-1.01481E+0	25.3953E-3
303.150E-3	4.10231E-12	302.854E-3	303.150E-3	126.462E-3	39.9652E-12	-968.638E-3	26.7713E-3
291.339E-3	4.05528E-12	291.109E-3	291.339E-3	4.95388E-3	40.0129E-12	-1.00128E+0	26.5711E-3
279.528E-3	3.86046E-12	279.274E-3	279.528E-3	77.1594E-3	39.9913E-12	-975.321E-3	25.3009E-3
267.717E-3	3.80557E-12	267.457E-3	267.717E-3	124.997E-3	40.0552E-12	-962.440E-3	26.1227E-3
255.906E-3	3.62385E-12	255.639E-3	255.906E-3	-54.8154E-3	40.0241E-12	-1.00749E+0	24.5120E-3
244.094E-3	3.46754E-12	243.866E-3	244.094E-3	-13.4505E-3	39.9454E-12	-1.02778E+0	28.0694E-3
232.283E-3	3.36018E-12	232.010E-3	232.283E-3	110.372E-3	39.9671E-12	-979.601E-3	27.5212E-3
220.472E-3	3.19056E-12	220.180E-3	220.472E-3	35.4209E-3	39.9108E-12	-996.719E-3	27.0106E-3
208.661E-3	3.03766E-12	208.410E-3	208.661E-3	-120.957E-3	40.0407E-12	-1.05230E+0	25.8816E-3
196.850E-3	2.88383E-12	196.561E-3	196.850E-3	97.1045E-3	39.9931E-12	-994.436E-3	26.6603E-3
185.039E-3	2.71191E-12	184.803E-3	185.039E-3	-75.6134E-3	40.0127E-12	-1.04215E+0	26.4105E-3
173.228E-3	2.56034E-12	172.994E-3	173.228E-3	-92.4256E-3	39.9557E-12	-1.08019E+0	27.9724E-3
161.417E-3	2.39859E-12	161.161E-3	161.417E-3	54.1802E-3	40.0726E-12	-1.04859E+0	25.0180E-3
149.606E-3	2.23202E-12	149.332E-3	149.606E-3	-66.6798E-3	39.9255E-12	-1.08352E+0	26.2923E-3
137.795E-3	2.07226E-12	137.548E-3	137.795E-3	133.758E-3	40.1204E-12	-993.731E-3	23.7848E-3
125.984E-3	1.90821E-12	125.782E-3	125.984E-3	-28.3426E-3	39.9952E-12	-1.05412E+0	26.4148E-3
114.173E-3	1.73348E-12	113.953E-3	114.173E-3	43.4375E-3	40.0323E-12	-1.03848E+0	26.2801E-3
102.362E-3	1.55931E-12	102.156E-3	102.362E-3	64.1106E-3	39.9612E-12	-1.02320E+0	26.1260E-3
90.5512E-3	1.38113E-12	90.3391E-3	90.5512E-3	21.6419E-3	39.9558E-12	-1.02527E+0	26.1837E-3
78.7402E-3	1.19931E-12	78.4979E-3	78.7402E-3	-101.396E-3	40.0634E-12	-1.11181E+0	27.2306E-3
66.9291E-3	1.01756E-12	66.6284E-3	66.9291E-3	25.9950E-3	39.9321E-12	-1.07177E+0	27.8694E-3
55.1181E-3	831.989E-15	54.8579E-3	55.1181E-3	-145.765E-3	40.1073E-12	-1.12672E+0	26.7766E-3
43.3071E-3	614.079E-15	43.0296E-3	43.3071E-3	55.2215E-3	40.0628E-12	-1.08117E+0	22.9339E-3
31.4961E-3	409.750E-15	31.2076E-3	31.4961E-3	-118.383E-3	39.9456E-12	-1.13588E+0	25.7331E-3
19.6850E-3	221.432E-15	19.4107E-3	19.6850E-3	107.169E-3	40.0294E-12	-1.06544E+0	27.7163E-3
7.87402E-3	15.3909E-15	7.56020E-3	7.87402E-3	-117.376E-3	39.9767E-12	-1.13727E+0	27.1630E-3
-3.93701E-3	-205.845E-15	-4.32700E-3	-3.93701E-3	25.4259E-3	40.0157E-12	-1.10911E+0	27.1818E-3
-15.7480E-3	-440.403E-15	-16.1035E-3	-15.7480E-3	-3.37228E-3	39.9701E-12	-1.10777E+0	27.1429E-3
-27.5591E-3	-676.065E-15	-27.9266E-3	-27.5591E-3	-111.438E-3	40.0418E-12	-1.13924E+0	26.4054E-3
-39.3701E-3	-916.117E-15	-39.6893E-3	-39.3701E-3	14.9043E-3	40.0139E-12	-1.13470E+0	26.0984E-3
-51.1811E-3	-1.16011E-12	-51.5501E-3	-51.1811E-3	32.9404E-3	39.9752E-12	-1.13035E+0	25.7269E-3
-62.9921E-3	-1.38574E-12	-63.3142E-3	-62.9921E-3	26.5720E-3	40.0347E-12	-1.15031E+0	25.4796E-3
-74.8032E-3	-1.57349E-12	-75.1544E-3	-74.8032E-3	-128.096E-3	39.9346E-12	-1.20588E+0	24.3189E-3
-86.6142E-3	-1.68354E-12	-87.0128E-3	-86.6142E-3	-95.1519E-3	39.9825E-12	-1.21092E+0	26.2332E-3
-98.4252E-3	-1.79071E-12	-98.7812E-3	-98.4252E-3	11.9158E-3	40.0938E-12	-1.19345E+0	23.5328E-3
-110.236E-3	-1.88632E-12	-110.635E-3	-110.236E-3	-29.4603E-3	40.0885E-12	-1.20433E+0	21.6497E-3
-122.047E-3	-1.97113E-12	-122.387E-3	-122.047E-3	13.3565E-3	39.9373E-12	-1.19530E+0	25.4810E-3
-133.858E-3	-2.12396E-12	-134.247E-3	-133.858E-3	-31.8600E-3	40.0092E-12	-1.21579E+0	26.8881E-3
-145.669E-3	-2.23727E-12	-146.038E-3	-145.669E-3	-48.5777E-3	39.9637E-12	-1.22429E+0	27.4465E-3
-157.480E-3	-2.32405E-12	-157.802E-3	-157.480E-3	-65.8551E-3	39.9820E-12	-1.23250E+0	28.6078E-3
-169.291E-3	-2.47959E-12	-169.679E-3	-169.291E-3	-120.921E-3	40.0169E-12	-1.27658E+0	28.1040E-3
-181.102E-3	-2.55936E-12	-181.419E-3	-181.102E-3	3.11178E-3	40.0024E-12	-1.24977E+0	26.3111E-3
-192.913E-3	-2.69476E-12	-193.237E-3	-192.913E-3	-43.2229E-3	40.0813E-12	-1.28072E+0	22.2993E-3
-204.724E-3	-2.79238E-12	-205.064E-3	-204.724E-3	-67.8443E-3	40.0101E-12	-1.29825E+0	25.6202E-3
-216.535E-3	-2.88459E-12	-216.864E-3	-216.535E-3	-12.5640E-3	39.9753E-12	-1.29947E+0	27.7530E-3
-228.346E-3	-2.99937E-12	-228.684E-3	-228.346E-3	13.8026E-3	40.0277E-12	-1.29427E+0	24.1473E-3
-240.157E-3	-3.08942E-12	-240.480E-3	-240.157E-3	-81.7363E-3	39.9752E-12	-1.32313E+0	28.7744E-3
-251.969E-3	-3.20769E-12	-252.304E-3	-251.969E-3	-11.5666E-3	40.0076E-12	-1.32112E+0	24.4922E-3
-263.780E-3	-3.32939E-12	-264.074E-3	-263.780E-3	-102.764E-3	39.9647E-12	-1.37346E+0	27.8659E-3
-275.591E-3	-3.47835E-12	-275.871E-3	-275.591E-3	-2.09402E-3	39.9863E-12	-1.37168E+0	27.3621E-3
-287.402E-3	-3.57622E-12	-287.721E-3	-287.402E-3	-109.189E-3	40.0138E-12	-1.41634E+0	24.3780E-3
-299.213E-3	-3.69867E-12	-299.504E-3	-299.213E-3	40.8748E-3	40.0357E-12	-1.35541E+0	26.7314E-3
-311.024E-3	-3.82698E-12	-311.335E-3	-311.024E-3	-31.1475E-3	40.0242E-12	-1.36179E+0	26.3248E-3
-322.835E-3	-3.96912E-12	-323.139E-3	-322.835E-3	18.0513E-3	40.0121E-12	-1.35539E+0	25.4594E-3
-334.646E-3	-4.08327E-12	-334.916E-3	-334.646E-3	-94.8390E-3	40.0127E-12	-1.38762E+0	26.4354E-3
-346.457E-3	-4.21708E-12	-346.725E-3	-346.457E-3	-111.469E-3	40.0050E-12	-1.42966E+0	25.2976E-3
-358.268E-3	-4.30708E-12	-358.563E-3	-358.268E-3	-33.7020E-3	39.9767E-12	-1.40810E+0	27.9354E-3
-370.079E-3	-4.46729E-12	-370.363E-3	-370.079E-3	9.77233E-3	40.0086E-12	-1.40704E+0	28.4775E-3
-381.890E-3	-4.52210E-12	-382.129E-3	-381.890E-3	-100.222E-3	39.9715E-12	-1.45167E+0	26.2119E-3
-393.701E-3	-4.70265E-12	-394.004E-3	-393.701E-3	-19.6772E-3	40.0144E-12	-1.43624E+0	26.7660E-3
-405.512E-3	-4.81234E-12	-405.817E-3	-405.512E-3	-60.1177E-3	40.0280E-12	-1.45793E+0	26.2170E-3
-417.323E-3	-4.93571E-12	-417.610E-3	-417.323E-3	38.6266E-3	39.9967E-12	-1.42687E+0	26.8839E-3
-429.134E-3	-5.10065E-12	-429.415E-3	-429.134E-3	-103.394E-3	39.9808E-12	-1.49583E+0	25.3526E-3
-440.945E-3	-5.34810E-12	-441.221E-3	-440.945E-3	68.3892E-3	39.9993E-12	-1.47282E+0	28.3360E-3
-452.756E-3	-5.47525E-12	-453.024E-3	-452.756E-3	-60.6217E-3	40.0092E-12	-1.50990E+0	24.5898E-3
-464.567E-3	-5.79469E-12	-464.845E-3	-464.567E-3	-106.287E-3	40.0450E-12	-1.55167E+0	25.2220E-3
-476.378E-3	-5.99017E-12	-476.672E-3	-476.378E-3	15.5034E-3	40.0008E-12	-1.52084E+0	29.0562E-3
-488.189E-3	-6.29366E-12	-488.401E-3	-488.189E-3	-175.925E-3	40.0429E-12	-1.59422E+0	25.4596E-3
-500.000E-3	-6.43494E-12	-500.245E-3	-500.000E-3	34.4014E-3	39.9415E-12	-1.53450E+0	26.9353E-3
