Experiment	bias spectroscopy	
Date	01.12.2015 04:12:21	
User		
X (m)	281.783E-9	
Y (m)	-139.55E-9	
Z (m)	-4.07703E-9	
Z offset (m)	0E+0	
Settling time (s)	30E-3	
Integration time (s)	200E-3	
Z-Ctrl hold	TRUE	
Final Z (m)	-4.07703E-9	
Filter type	None	
Order		
Cutoff frq		
Current (A)	14.5838E-12	
Z (m)	-4.07703E-9	
Phase (deg)	-897.36E-3	
Amplitude (m)	39.775E-12	
Frequency Shift (Hz)	-1.32913E+0	
Excitation (V)	39.314E-3	

[DATA]
Bias calc (V)	Current (A)	Applied Voltage measured (V)	Bias (V)	Phase (deg)	Amplitude (m)	Frequency Shift (Hz)	Excitation (V)
1.00000E+0	14.4075E-12	999.345E-3	1.00000E+0	-60.1168E-3	40.0248E-12	-1.07160E+0	24.5344E-3
988.189E-3	14.2765E-12	987.551E-3	988.189E-3	42.7481E-3	40.0031E-12	-1.04845E+0	25.0420E-3
976.378E-3	14.1449E-12	975.787E-3	976.378E-3	30.9078E-3	39.9576E-12	-1.06813E+0	26.5423E-3
964.567E-3	14.0989E-12	963.915E-3	964.567E-3	168.271E-3	39.9807E-12	-999.317E-3	29.5556E-3
952.756E-3	13.9010E-12	952.161E-3	952.756E-3	-121.237E-3	40.0748E-12	-1.07741E+0	23.4885E-3
940.945E-3	13.7654E-12	940.320E-3	940.945E-3	36.9841E-3	40.0043E-12	-1.04181E+0	21.8414E-3
929.134E-3	13.5814E-12	928.497E-3	929.134E-3	194.140E-3	39.9401E-12	-971.933E-3	26.9170E-3
917.323E-3	13.6710E-12	916.753E-3	917.323E-3	-13.4294E-3	39.9829E-12	-1.00490E+0	26.0881E-3
905.512E-3	13.4048E-12	904.893E-3	905.512E-3	-69.4984E-3	40.0732E-12	-1.01979E+0	23.8766E-3
893.701E-3	13.2601E-12	893.136E-3	893.701E-3	-35.2202E-3	40.0228E-12	-1.01252E+0	24.5498E-3
881.890E-3	13.2203E-12	881.297E-3	881.890E-3	-45.3204E-3	39.9856E-12	-1.01751E+0	26.7842E-3
870.079E-3	12.9407E-12	869.500E-3	870.079E-3	-93.7733E-3	40.0282E-12	-1.05218E+0	27.0260E-3
858.268E-3	12.8434E-12	857.672E-3	858.268E-3	244.938E-3	39.9673E-12	-939.728E-3	27.8244E-3
846.457E-3	12.8135E-12	845.846E-3	846.457E-3	-157.004E-3	40.0313E-12	-1.03747E+0	29.1545E-3
834.646E-3	12.5667E-12	834.063E-3	834.646E-3	53.8712E-3	39.8777E-12	-960.341E-3	27.7701E-3
822.835E-3	12.4371E-12	822.260E-3	822.835E-3	-258.232E-3	40.0863E-12	-1.06717E+0	22.4111E-3
811.024E-3	12.2656E-12	810.425E-3	811.024E-3	122.330E-3	40.0070E-12	-942.460E-3	23.6388E-3
799.213E-3	12.2675E-12	798.654E-3	799.213E-3	-14.6576E-3	40.0377E-12	-991.176E-3	24.4299E-3
787.402E-3	12.1086E-12	786.822E-3	787.402E-3	114.693E-3	39.9321E-12	-941.100E-3	28.2324E-3
775.591E-3	11.9382E-12	775.040E-3	775.591E-3	-35.2407E-3	40.0117E-12	-959.920E-3	25.3785E-3
763.780E-3	11.7616E-12	763.206E-3	763.780E-3	-67.8356E-3	40.0482E-12	-980.640E-3	26.1351E-3
751.969E-3	11.6935E-12	751.435E-3	751.969E-3	-73.3746E-3	40.0088E-12	-993.287E-3	25.6899E-3
740.157E-3	11.4639E-12	739.639E-3	740.157E-3	108.195E-3	39.9557E-12	-931.211E-3	26.9812E-3
728.346E-3	11.5065E-12	727.794E-3	728.346E-3	-183.995E-3	39.9881E-12	-1.03035E+0	25.9572E-3
716.535E-3	11.2873E-12	716.003E-3	716.535E-3	188.284E-3	39.9710E-12	-932.179E-3	26.7384E-3
704.724E-3	11.1019E-12	704.311E-3	704.724E-3	98.9350E-3	40.0578E-12	-902.260E-3	24.4203E-3
692.913E-3	10.9782E-12	692.516E-3	692.913E-3	-101.870E-3	39.9786E-12	-971.164E-3	24.7060E-3
681.102E-3	10.9919E-12	680.734E-3	681.102E-3	66.8108E-3	40.0549E-12	-916.006E-3	24.6017E-3
669.291E-3	10.5972E-12	668.918E-3	669.291E-3	13.0728E-3	39.9374E-12	-919.560E-3	27.5259E-3
657.480E-3	10.5694E-12	657.085E-3	657.480E-3	-132.819E-3	40.0351E-12	-975.030E-3	25.7803E-3
645.669E-3	10.4537E-12	645.273E-3	645.669E-3	80.0499E-3	39.9983E-12	-909.702E-3	27.4789E-3
633.858E-3	10.3253E-12	633.480E-3	633.858E-3	-27.4754E-3	40.0228E-12	-917.508E-3	26.5577E-3
622.047E-3	10.1298E-12	621.674E-3	622.047E-3	36.9752E-3	40.0334E-12	-935.900E-3	24.0634E-3
610.236E-3	9.93279E-12	609.896E-3	610.236E-3	-35.8097E-3	39.9926E-12	-951.855E-3	24.1278E-3
598.425E-3	9.90115E-12	598.088E-3	598.425E-3	73.1890E-3	40.0150E-12	-903.167E-3	24.5328E-3
586.614E-3	9.72772E-12	586.277E-3	586.614E-3	102.544E-3	40.0221E-12	-853.517E-3	24.6333E-3
574.803E-3	9.52859E-12	574.455E-3	574.803E-3	34.4918E-3	39.9704E-12	-867.612E-3	27.6373E-3
562.992E-3	9.42020E-12	562.684E-3	562.992E-3	-35.9404E-3	40.0106E-12	-912.424E-3	25.1829E-3
551.181E-3	9.14564E-12	550.868E-3	551.181E-3	-36.8472E-3	39.9248E-12	-924.008E-3	29.3064E-3
539.370E-3	8.97365E-12	538.997E-3	539.370E-3	-61.6133E-3	40.0118E-12	-936.909E-3	27.3559E-3
527.559E-3	8.94005E-12	527.215E-3	527.559E-3	-39.3096E-3	39.9915E-12	-932.941E-3	23.9172E-3
515.748E-3	8.84398E-12	515.378E-3	515.748E-3	45.1705E-3	39.9745E-12	-899.205E-3	26.8974E-3
503.937E-3	8.65712E-12	503.597E-3	503.937E-3	73.8519E-3	40.0571E-12	-907.167E-3	24.0124E-3
492.126E-3	8.36734E-12	491.774E-3	492.126E-3	42.6276E-3	39.9651E-12	-903.478E-3	26.6569E-3
480.315E-3	8.25912E-12	479.962E-3	480.315E-3	43.2033E-3	40.0299E-12	-893.641E-3	24.3686E-3
468.504E-3	8.06490E-12	468.169E-3	468.504E-3	-104.524E-3	40.0334E-12	-955.837E-3	23.4733E-3
456.693E-3	7.88751E-12	456.355E-3	456.693E-3	42.1050E-3	39.9078E-12	-916.847E-3	25.8719E-3
444.882E-3	7.72925E-12	444.588E-3	444.882E-3	-11.3242E-3	39.9969E-12	-927.914E-3	23.5148E-3
433.071E-3	7.50097E-12	432.763E-3	433.071E-3	-3.49032E-3	39.9474E-12	-951.248E-3	28.5327E-3
421.260E-3	7.38729E-12	420.945E-3	421.260E-3	14.4680E-3	40.0370E-12	-928.285E-3	26.6756E-3
409.449E-3	7.25535E-12	409.164E-3	409.449E-3	-67.6651E-3	40.0152E-12	-944.110E-3	26.1550E-3
397.638E-3	7.09801E-12	397.315E-3	397.638E-3	41.6233E-3	40.0601E-12	-930.493E-3	21.3375E-3
385.827E-3	6.89249E-12	385.567E-3	385.827E-3	-105.082E-3	39.9436E-12	-959.680E-3	26.4748E-3
374.016E-3	6.75489E-12	373.709E-3	374.016E-3	20.4618E-3	39.9390E-12	-928.100E-3	28.6514E-3
362.205E-3	6.58304E-12	361.923E-3	362.205E-3	-13.6113E-3	40.0161E-12	-954.928E-3	22.8167E-3
350.394E-3	6.40653E-12	350.169E-3	350.394E-3	-42.5741E-3	39.9730E-12	-987.228E-3	25.9391E-3
338.583E-3	6.28387E-12	338.318E-3	338.583E-3	159.624E-3	40.0132E-12	-904.353E-3	26.9723E-3
326.772E-3	6.05103E-12	326.528E-3	326.772E-3	142.047E-3	40.0485E-12	-898.253E-3	25.9952E-3
314.961E-3	5.93971E-12	314.694E-3	314.961E-3	-99.5689E-3	40.0437E-12	-959.873E-3	24.0319E-3
303.150E-3	5.71651E-12	302.866E-3	303.150E-3	93.2921E-3	39.9747E-12	-924.404E-3	26.5458E-3
291.339E-3	5.54299E-12	291.115E-3	291.339E-3	-58.7788E-3	40.0119E-12	-955.128E-3	25.6831E-3
279.528E-3	5.36563E-12	279.286E-3	279.528E-3	81.8262E-3	39.9684E-12	-900.874E-3	26.4593E-3
267.717E-3	5.21782E-12	267.476E-3	267.717E-3	9.76310E-3	40.0231E-12	-937.058E-3	25.8906E-3
255.906E-3	4.92202E-12	255.658E-3	255.906E-3	-154.017E-3	40.0384E-12	-998.566E-3	23.9438E-3
244.094E-3	4.82527E-12	243.880E-3	244.094E-3	-116.316E-3	40.0277E-12	-993.029E-3	24.0628E-3
232.283E-3	4.61636E-12	232.022E-3	232.283E-3	-80.4575E-3	39.9482E-12	-987.644E-3	28.3072E-3
220.472E-3	4.42724E-12	220.187E-3	220.472E-3	11.5119E-3	40.0246E-12	-957.812E-3	25.2468E-3
208.661E-3	4.26293E-12	208.404E-3	208.661E-3	-83.2347E-3	39.9677E-12	-1.00213E+0	24.3077E-3
196.850E-3	4.08271E-12	196.583E-3	196.850E-3	-8.33686E-3	39.9643E-12	-985.984E-3	28.3887E-3
185.039E-3	3.85654E-12	184.813E-3	185.039E-3	2.84355E-3	39.9956E-12	-973.210E-3	26.0410E-3
173.228E-3	3.62460E-12	173.007E-3	173.228E-3	112.313E-3	40.0243E-12	-917.743E-3	27.0967E-3
161.417E-3	3.44960E-12	161.164E-3	161.417E-3	-42.4950E-3	40.0566E-12	-976.091E-3	25.6795E-3
149.606E-3	3.15021E-12	149.342E-3	149.606E-3	46.4229E-3	39.9878E-12	-937.997E-3	25.3483E-3
137.795E-3	2.93402E-12	137.553E-3	137.795E-3	-42.6076E-3	40.0354E-12	-988.194E-3	24.6213E-3
125.984E-3	2.67646E-12	125.784E-3	125.984E-3	-182.080E-3	40.0143E-12	-1.05566E+0	25.1535E-3
114.173E-3	2.46063E-12	113.949E-3	114.173E-3	-121.152E-3	40.0485E-12	-1.03910E+0	24.5902E-3
102.362E-3	2.21296E-12	102.152E-3	102.362E-3	66.3958E-3	39.9717E-12	-984.471E-3	24.8077E-3
90.5512E-3	1.94117E-12	90.3341E-3	90.5512E-3	-31.5311E-3	40.0121E-12	-1.01041E+0	25.6063E-3
78.7402E-3	1.70344E-12	78.4964E-3	78.7402E-3	-148.044E-3	39.9762E-12	-1.06112E+0	26.9468E-3
66.9291E-3	1.44391E-12	66.6315E-3	66.9291E-3	209.824E-3	40.0326E-12	-952.619E-3	24.7843E-3
55.1181E-3	1.17466E-12	54.8505E-3	55.1181E-3	-135.725E-3	39.9764E-12	-1.06258E+0	28.3244E-3
43.3071E-3	908.570E-15	43.0325E-3	43.3071E-3	-7.32125E-3	40.0435E-12	-1.03785E+0	26.3318E-3
31.4961E-3	638.195E-15	31.2037E-3	31.4961E-3	-11.4363E-3	39.9091E-12	-1.03140E+0	27.5842E-3
19.6850E-3	340.621E-15	19.4116E-3	19.6850E-3	33.3134E-3	39.9816E-12	-1.02660E+0	28.9940E-3
7.87402E-3	58.5753E-15	7.56289E-3	7.87402E-3	-173.403E-3	40.0839E-12	-1.11088E+0	21.1788E-3
-3.93701E-3	-222.849E-15	-4.33277E-3	-3.93701E-3	92.0029E-3	40.0395E-12	-1.03711E+0	24.9918E-3
-15.7480E-3	-502.725E-15	-16.1065E-3	-15.7480E-3	-31.4197E-3	40.0331E-12	-1.07423E+0	25.1786E-3
-27.5591E-3	-773.544E-15	-27.9229E-3	-27.5591E-3	-124.468E-3	39.9143E-12	-1.12450E+0	26.9637E-3
-39.3701E-3	-1.05420E-12	-39.6981E-3	-39.3701E-3	23.5077E-3	40.0520E-12	-1.08847E+0	25.6701E-3
-51.1811E-3	-1.34461E-12	-51.5548E-3	-51.1811E-3	113.956E-3	40.0452E-12	-1.05407E+0	24.8171E-3
-62.9921E-3	-1.62110E-12	-63.3238E-3	-62.9921E-3	-150.776E-3	39.9647E-12	-1.13912E+0	24.1061E-3
-74.8032E-3	-1.81988E-12	-75.1631E-3	-74.8032E-3	8.35950E-3	39.9788E-12	-1.09868E+0	25.8005E-3
-86.6142E-3	-1.96154E-12	-87.0187E-3	-86.6142E-3	-203.410E-3	40.0525E-12	-1.17453E+0	26.1049E-3
-98.4252E-3	-2.08870E-12	-98.7853E-3	-98.4252E-3	94.0032E-3	40.0571E-12	-1.08630E+0	25.7880E-3
-110.236E-3	-2.16172E-12	-110.637E-3	-110.236E-3	-59.4565E-3	39.8921E-12	-1.13053E+0	26.9969E-3
-122.047E-3	-2.27273E-12	-122.389E-3	-122.047E-3	-40.6539E-3	40.0830E-12	-1.13298E+0	24.6555E-3
-133.858E-3	-2.38356E-12	-134.248E-3	-133.858E-3	-23.0009E-3	39.9687E-12	-1.13741E+0	24.4152E-3
-145.669E-3	-2.53594E-12	-146.038E-3	-145.669E-3	25.3306E-3	39.9653E-12	-1.14575E+0	26.5773E-3
-157.480E-3	-2.68961E-12	-157.806E-3	-157.480E-3	-58.4096E-3	40.0897E-12	-1.18920E+0	22.1522E-3
-169.291E-3	-2.76259E-12	-169.679E-3	-169.291E-3	-37.1522E-3	39.9321E-12	-1.19602E+0	26.8876E-3
-181.102E-3	-2.92442E-12	-181.420E-3	-181.102E-3	-92.6984E-3	40.0389E-12	-1.20553E+0	23.7378E-3
-192.913E-3	-3.02009E-12	-193.236E-3	-192.913E-3	-69.6346E-3	40.0086E-12	-1.19395E+0	23.4938E-3
-204.724E-3	-3.11914E-12	-205.061E-3	-204.724E-3	-95.1447E-3	39.9772E-12	-1.22252E+0	28.0077E-3
-216.535E-3	-3.26844E-12	-216.862E-3	-216.535E-3	58.2726E-3	39.9286E-12	-1.19165E+0	29.8493E-3
-228.346E-3	-3.35394E-12	-228.677E-3	-228.346E-3	-188.073E-3	40.0028E-12	-1.28001E+0	27.6948E-3
-240.157E-3	-3.51380E-12	-240.472E-3	-240.157E-3	112.353E-3	40.0947E-12	-1.18188E+0	24.7665E-3
-251.969E-3	-3.65769E-12	-252.294E-3	-251.969E-3	-78.4411E-3	40.0087E-12	-1.23265E+0	26.6133E-3
-263.780E-3	-3.78658E-12	-264.056E-3	-263.780E-3	-166.371E-3	40.0013E-12	-1.28124E+0	25.8770E-3
-275.591E-3	-3.91245E-12	-275.863E-3	-275.591E-3	-135.106E-3	40.0027E-12	-1.30385E+0	26.6286E-3
-287.402E-3	-4.01404E-12	-287.713E-3	-287.402E-3	-42.7011E-3	40.0903E-12	-1.29374E+0	24.9665E-3
-299.213E-3	-4.17824E-12	-299.510E-3	-299.213E-3	-9.60453E-3	39.9100E-12	-1.29481E+0	27.8168E-3
-311.024E-3	-4.28543E-12	-311.339E-3	-311.024E-3	-57.4147E-3	40.0379E-12	-1.32928E+0	23.7936E-3
-322.835E-3	-4.42679E-12	-323.124E-3	-322.835E-3	125.046E-3	39.9811E-12	-1.26894E+0	27.9502E-3
-334.646E-3	-4.53248E-12	-334.908E-3	-334.646E-3	-26.8420E-3	39.9642E-12	-1.30905E+0	29.4265E-3
-346.457E-3	-4.70253E-12	-346.721E-3	-346.457E-3	-70.0088E-3	40.0077E-12	-1.32711E+0	24.9598E-3
-358.268E-3	-4.79044E-12	-358.565E-3	-358.268E-3	-84.9567E-3	40.0345E-12	-1.36425E+0	26.7345E-3
-370.079E-3	-4.96538E-12	-370.362E-3	-370.079E-3	-104.225E-3	40.0290E-12	-1.39000E+0	25.2450E-3
-381.890E-3	-5.02604E-12	-382.127E-3	-381.890E-3	-96.1303E-3	40.0071E-12	-1.40882E+0	25.5789E-3
-393.701E-3	-5.21165E-12	-394.002E-3	-393.701E-3	15.0298E-3	40.0453E-12	-1.37348E+0	24.5600E-3
-405.512E-3	-5.31853E-12	-405.808E-3	-405.512E-3	2.99588E-3	40.0525E-12	-1.38367E+0	23.0514E-3
-417.323E-3	-5.40682E-12	-417.607E-3	-417.323E-3	33.6067E-3	39.9236E-12	-1.37882E+0	25.9393E-3
-429.134E-3	-5.67360E-12	-429.412E-3	-429.134E-3	24.4651E-3	40.0143E-12	-1.37767E+0	22.2996E-3
-440.945E-3	-5.78225E-12	-441.218E-3	-440.945E-3	49.2085E-3	39.9869E-12	-1.38244E+0	26.1144E-3
-452.756E-3	-5.99492E-12	-453.016E-3	-452.756E-3	-750.664E-6	39.9829E-12	-1.41684E+0	25.8526E-3
-464.567E-3	-6.15120E-12	-464.845E-3	-464.567E-3	-107.674E-3	39.9948E-12	-1.46406E+0	25.7671E-3
-476.378E-3	-6.48973E-12	-476.665E-3	-476.378E-3	-37.7108E-3	40.0622E-12	-1.47550E+0	25.9251E-3
-488.189E-3	-6.64363E-12	-488.399E-3	-488.189E-3	14.5643E-3	39.8947E-12	-1.46406E+0	26.8558E-3
-500.000E-3	-7.04490E-12	-500.244E-3	-500.000E-3	-86.9969E-3	40.0344E-12	-1.50658E+0	28.1548E-3
