Experiment	bias spectroscopy	
Date	01.12.2015 05:32:54	
User		
X (m)	281.553E-9	
Y (m)	-138.777E-9	
Z (m)	-4.07703E-9	
Z offset (m)	0E+0	
Settling time (s)	30E-3	
Integration time (s)	200E-3	
Z-Ctrl hold	TRUE	
Final Z (m)	-4.07703E-9	
Filter type	None	
Order		
Cutoff frq		
Current (A)	15.1346E-12	
Z (m)	-4.07703E-9	
Phase (deg)	-97.1187E-3	
Amplitude (m)	39.967E-12	
Frequency Shift (Hz)	-1.12593E+0	
Excitation (V)	22.0032E-3	

[DATA]
Bias calc (V)	Current (A)	Applied Voltage measured (V)	Bias (V)	Phase (deg)	Amplitude (m)	Frequency Shift (Hz)	Excitation (V)
1.00000E+0	15.1298E-12	999.326E-3	1.00000E+0	-31.1036E-3	40.0013E-12	-1.06391E+0	24.2217E-3
988.189E-3	15.1098E-12	987.533E-3	988.189E-3	-22.7721E-3	40.0417E-12	-1.08382E+0	23.5626E-3
976.378E-3	15.0453E-12	975.764E-3	976.378E-3	8.66878E-3	39.9788E-12	-1.07770E+0	27.3523E-3
964.567E-3	14.9597E-12	963.899E-3	964.567E-3	-37.4871E-3	40.1337E-12	-1.08043E+0	20.5855E-3
952.756E-3	14.7889E-12	952.138E-3	952.756E-3	-21.2022E-3	40.0281E-12	-1.07173E+0	23.2750E-3
940.945E-3	14.6220E-12	940.311E-3	940.945E-3	20.1639E-3	39.9782E-12	-1.05008E+0	25.3502E-3
929.134E-3	14.4349E-12	928.487E-3	929.134E-3	69.0102E-3	40.0260E-12	-1.02904E+0	24.4805E-3
917.323E-3	14.1594E-12	916.739E-3	917.323E-3	54.2957E-3	40.0170E-12	-998.493E-3	25.8578E-3
905.512E-3	14.2293E-12	904.883E-3	905.512E-3	34.2653E-3	40.0123E-12	-1.01646E+0	25.8547E-3
893.701E-3	14.0220E-12	893.128E-3	893.701E-3	-29.5063E-3	39.9802E-12	-1.04370E+0	27.0620E-3
881.890E-3	14.0099E-12	881.283E-3	881.890E-3	102.369E-3	40.0695E-12	-991.471E-3	23.8929E-3
870.079E-3	13.8503E-12	869.474E-3	870.079E-3	126.152E-3	39.9797E-12	-979.021E-3	26.6914E-3
858.268E-3	13.7264E-12	857.654E-3	858.268E-3	43.3857E-3	39.9479E-12	-1.00542E+0	29.5235E-3
846.457E-3	13.3872E-12	845.835E-3	846.457E-3	-76.6188E-3	40.0579E-12	-1.03982E+0	25.2191E-3
834.646E-3	13.4624E-12	834.056E-3	834.646E-3	-34.0798E-3	40.0111E-12	-1.01717E+0	23.8246E-3
822.835E-3	13.3039E-12	822.235E-3	822.835E-3	42.3790E-3	39.9712E-12	-996.829E-3	26.3757E-3
811.024E-3	12.9689E-12	810.410E-3	811.024E-3	-2.70190E-3	40.0324E-12	-995.469E-3	23.1827E-3
799.213E-3	12.9780E-12	798.641E-3	799.213E-3	27.2578E-3	40.0275E-12	-987.958E-3	23.0155E-3
787.402E-3	12.7682E-12	786.810E-3	787.402E-3	54.9027E-3	40.0744E-12	-957.475E-3	25.2058E-3
775.591E-3	12.6311E-12	775.017E-3	775.591E-3	19.5947E-3	39.9656E-12	-969.456E-3	25.2933E-3
763.780E-3	12.4435E-12	763.195E-3	763.780E-3	149.337E-3	40.0378E-12	-927.056E-3	23.4840E-3
751.969E-3	12.4055E-12	751.420E-3	751.969E-3	-92.4638E-3	39.9559E-12	-992.418E-3	24.4957E-3
740.157E-3	12.1841E-12	739.615E-3	740.157E-3	66.7540E-3	39.9199E-12	-954.136E-3	23.8229E-3
728.346E-3	12.2758E-12	727.769E-3	728.346E-3	-3.38702E-3	40.0451E-12	-965.378E-3	23.6830E-3
716.535E-3	12.0305E-12	715.987E-3	716.535E-3	128.681E-3	39.9933E-12	-930.389E-3	25.1715E-3
704.724E-3	11.8501E-12	704.295E-3	704.724E-3	-4.57481E-3	40.0149E-12	-956.297E-3	24.1230E-3
692.913E-3	11.5807E-12	692.503E-3	692.913E-3	35.5195E-3	39.9723E-12	-936.438E-3	24.8497E-3
681.102E-3	11.6187E-12	680.730E-3	681.102E-3	-57.9029E-3	40.1254E-12	-970.817E-3	22.0418E-3
669.291E-3	11.4173E-12	668.917E-3	669.291E-3	-72.5944E-3	40.0130E-12	-984.935E-3	24.8245E-3
657.480E-3	11.2103E-12	657.071E-3	657.480E-3	95.8890E-3	39.9591E-12	-929.193E-3	26.2474E-3
645.669E-3	11.0976E-12	645.266E-3	645.669E-3	-55.8672E-3	39.9491E-12	-992.359E-3	23.3603E-3
633.858E-3	10.9991E-12	633.453E-3	633.858E-3	-39.4950E-3	40.0897E-12	-986.057E-3	25.7603E-3
622.047E-3	10.9069E-12	621.650E-3	622.047E-3	55.3625E-3	40.0480E-12	-948.500E-3	27.3491E-3
610.236E-3	10.6094E-12	609.890E-3	610.236E-3	61.1288E-3	39.9589E-12	-947.695E-3	25.6536E-3
598.425E-3	10.6583E-12	598.080E-3	598.425E-3	-56.0858E-3	40.0024E-12	-999.631E-3	23.6749E-3
586.614E-3	10.3234E-12	586.260E-3	586.614E-3	134.325E-3	39.9946E-12	-918.404E-3	24.2838E-3
574.803E-3	10.2938E-12	574.438E-3	574.803E-3	92.7494E-3	40.0259E-12	-906.018E-3	23.7555E-3
562.992E-3	10.1949E-12	562.665E-3	562.992E-3	55.9609E-3	39.9984E-12	-914.181E-3	25.7108E-3
551.181E-3	10.0323E-12	550.853E-3	551.181E-3	16.3672E-3	40.0263E-12	-911.436E-3	27.9184E-3
539.370E-3	9.65954E-12	538.988E-3	539.370E-3	-155.488E-3	39.9387E-12	-976.307E-3	26.5182E-3
527.559E-3	9.69078E-12	527.212E-3	527.559E-3	-24.9075E-3	40.0408E-12	-966.488E-3	27.5039E-3
515.748E-3	9.46909E-12	515.368E-3	515.748E-3	-8.46828E-3	40.0038E-12	-946.895E-3	24.7975E-3
503.937E-3	9.28914E-12	503.585E-3	503.937E-3	-87.1957E-3	39.9300E-12	-982.598E-3	29.7907E-3
492.126E-3	9.06148E-12	491.757E-3	492.126E-3	126.187E-3	40.0216E-12	-908.314E-3	24.8923E-3
480.315E-3	8.96539E-12	479.951E-3	480.315E-3	83.4830E-3	40.0442E-12	-907.132E-3	23.3586E-3
468.504E-3	8.82193E-12	468.147E-3	468.504E-3	39.4818E-3	40.0320E-12	-893.591E-3	24.7439E-3
456.693E-3	8.61439E-12	456.334E-3	456.693E-3	-127.637E-3	40.0117E-12	-977.951E-3	26.6514E-3
444.882E-3	8.47021E-12	444.567E-3	444.882E-3	36.6201E-3	40.0171E-12	-932.537E-3	24.0823E-3
433.071E-3	8.20113E-12	432.732E-3	433.071E-3	-130.539E-3	40.0224E-12	-1.00014E+0	25.6287E-3
421.260E-3	8.12747E-12	420.927E-3	421.260E-3	77.8026E-3	40.0303E-12	-922.808E-3	25.2453E-3
409.449E-3	7.91142E-12	409.145E-3	409.449E-3	-5.28283E-3	39.9424E-12	-935.012E-3	26.7562E-3
397.638E-3	7.66261E-12	397.295E-3	397.638E-3	-450.188E-6	39.9745E-12	-926.732E-3	25.4908E-3
385.827E-3	7.45528E-12	385.545E-3	385.827E-3	-44.9638E-3	40.0035E-12	-966.419E-3	25.9216E-3
374.016E-3	7.37265E-12	373.707E-3	374.016E-3	-61.6423E-3	39.9691E-12	-961.691E-3	27.9633E-3
362.205E-3	7.19898E-12	361.900E-3	362.205E-3	28.5804E-3	39.9970E-12	-945.680E-3	24.3903E-3
350.394E-3	7.01400E-12	350.165E-3	350.394E-3	200.108E-3	40.0835E-12	-871.155E-3	23.1911E-3
338.583E-3	6.77996E-12	338.306E-3	338.583E-3	-95.5737E-3	39.9830E-12	-972.077E-3	25.2528E-3
326.772E-3	6.71650E-12	326.517E-3	326.772E-3	18.0114E-3	40.0071E-12	-948.785E-3	25.8949E-3
314.961E-3	6.47940E-12	314.671E-3	314.961E-3	-25.3336E-3	39.9512E-12	-997.190E-3	24.7977E-3
303.150E-3	6.32549E-12	302.859E-3	303.150E-3	197.928E-3	40.0287E-12	-894.869E-3	24.2256E-3
291.339E-3	6.07598E-12	291.112E-3	291.339E-3	-44.3975E-3	39.9936E-12	-952.239E-3	24.9557E-3
279.528E-3	5.90495E-12	279.279E-3	279.528E-3	26.9943E-3	39.9565E-12	-953.574E-3	25.5181E-3
267.717E-3	5.65942E-12	267.464E-3	267.717E-3	-103.754E-3	39.9955E-12	-999.574E-3	24.5877E-3
255.906E-3	5.45764E-12	255.636E-3	255.906E-3	-3.21259E-3	39.9844E-12	-968.478E-3	24.4064E-3
244.094E-3	5.31968E-12	243.859E-3	244.094E-3	-73.2977E-3	40.0198E-12	-988.262E-3	26.1995E-3
232.283E-3	5.01644E-12	232.013E-3	232.283E-3	98.3755E-3	39.9477E-12	-928.083E-3	26.6268E-3
220.472E-3	4.84496E-12	220.182E-3	220.472E-3	-40.3155E-3	39.9280E-12	-973.281E-3	27.4131E-3
208.661E-3	4.63662E-12	208.405E-3	208.661E-3	5.82095E-3	39.9695E-12	-969.070E-3	29.2303E-3
196.850E-3	4.39719E-12	196.569E-3	196.850E-3	-39.3912E-3	40.0127E-12	-989.659E-3	24.2923E-3
185.039E-3	4.21428E-12	184.811E-3	185.039E-3	-26.2164E-3	39.9973E-12	-1.00032E+0	25.8028E-3
173.228E-3	3.95839E-12	172.990E-3	173.228E-3	-46.0415E-3	39.9618E-12	-1.01779E+0	29.0387E-3
161.417E-3	3.71062E-12	161.158E-3	161.417E-3	68.1268E-3	40.0327E-12	-1.00843E+0	22.8244E-3
149.606E-3	3.39517E-12	149.323E-3	149.606E-3	-46.6859E-3	39.9693E-12	-1.03411E+0	29.2966E-3
137.795E-3	3.14984E-12	137.534E-3	137.795E-3	-81.4341E-3	39.9517E-12	-1.04450E+0	26.8680E-3
125.984E-3	2.90628E-12	125.772E-3	125.984E-3	105.983E-3	39.9212E-12	-982.256E-3	29.9948E-3
114.173E-3	2.66076E-12	113.930E-3	114.173E-3	36.1002E-6	40.0711E-12	-1.00782E+0	23.8093E-3
102.362E-3	2.34557E-12	102.131E-3	102.362E-3	-61.4243E-3	39.9578E-12	-1.05173E+0	27.5904E-3
90.5512E-3	2.08853E-12	90.3125E-3	90.5512E-3	-41.1319E-3	40.0165E-12	-1.04760E+0	26.4794E-3
78.7402E-3	1.81785E-12	78.4811E-3	78.7402E-3	-48.5059E-3	40.0020E-12	-1.05981E+0	23.8222E-3
66.9291E-3	1.52056E-12	66.6090E-3	66.9291E-3	28.2106E-3	39.9708E-12	-1.04550E+0	25.1706E-3
55.1181E-3	1.24357E-12	54.8334E-3	55.1181E-3	124.016E-3	40.0421E-12	-1.01537E+0	24.8760E-3
43.3071E-3	945.259E-15	43.0198E-3	43.3071E-3	-75.4074E-3	40.0071E-12	-1.07246E+0	26.1952E-3
31.4961E-3	661.716E-15	31.1936E-3	31.4961E-3	-22.6359E-3	39.9998E-12	-1.06627E+0	23.0423E-3
19.6850E-3	373.192E-15	19.3953E-3	19.6850E-3	16.3723E-3	40.0479E-12	-1.05538E+0	24.4579E-3
7.87402E-3	70.6564E-15	7.53873E-3	7.87402E-3	-24.2865E-3	40.0038E-12	-1.07215E+0	25.2787E-3
-3.93701E-3	-224.056E-15	-4.35194E-3	-3.93701E-3	11.1277E-3	39.9837E-12	-1.06446E+0	24.4957E-3
-15.7480E-3	-516.237E-15	-16.1408E-3	-15.7480E-3	140.388E-3	40.0704E-12	-1.01055E+0	25.1040E-3
-27.5591E-3	-806.855E-15	-27.9484E-3	-27.5591E-3	-146.289E-3	39.9700E-12	-1.09932E+0	27.5347E-3
-39.3701E-3	-1.09208E-12	-39.7210E-3	-39.3701E-3	-63.2247E-3	40.0457E-12	-1.10790E+0	24.9666E-3
-51.1811E-3	-1.41213E-12	-51.5705E-3	-51.1811E-3	-68.4557E-3	40.0315E-12	-1.10369E+0	23.7705E-3
-62.9921E-3	-1.66621E-12	-63.3398E-3	-62.9921E-3	-77.1264E-3	39.9299E-12	-1.12486E+0	29.0914E-3
-74.8032E-3	-1.91543E-12	-75.1807E-3	-74.8032E-3	148.036E-3	40.0762E-12	-1.06684E+0	25.8586E-3
-86.6142E-3	-2.05340E-12	-87.0220E-3	-86.6142E-3	5.54770E-3	39.9929E-12	-1.09558E+0	25.0712E-3
-98.4252E-3	-2.13235E-12	-98.8011E-3	-98.4252E-3	42.8895E-3	39.9936E-12	-1.09626E+0	22.9908E-3
-110.236E-3	-2.25759E-12	-110.656E-3	-110.236E-3	11.4770E-3	39.9673E-12	-1.11406E+0	27.3639E-3
-122.047E-3	-2.42529E-12	-122.397E-3	-122.047E-3	-19.0601E-3	40.0419E-12	-1.14245E+0	26.1790E-3
-133.858E-3	-2.55010E-12	-134.252E-3	-133.858E-3	-148.601E-3	40.0808E-12	-1.19342E+0	23.9799E-3
-145.669E-3	-2.72705E-12	-146.059E-3	-145.669E-3	-90.6556E-3	40.0285E-12	-1.20863E+0	26.3138E-3
-157.480E-3	-2.86729E-12	-157.822E-3	-157.480E-3	-206.970E-3	40.0112E-12	-1.27494E+0	24.7785E-3
-169.291E-3	-2.98184E-12	-169.694E-3	-169.291E-3	124.923E-3	39.9250E-12	-1.17130E+0	27.4837E-3
-181.102E-3	-3.09953E-12	-181.447E-3	-181.102E-3	1.03771E-3	39.9981E-12	-1.19069E+0	28.0960E-3
-192.913E-3	-3.24329E-12	-193.250E-3	-192.913E-3	-102.748E-3	40.0335E-12	-1.25411E+0	22.1590E-3
-204.724E-3	-3.40123E-12	-205.078E-3	-204.724E-3	128.006E-3	39.9645E-12	-1.19997E+0	26.6201E-3
-216.535E-3	-3.54805E-12	-216.878E-3	-216.535E-3	-9.93639E-3	40.0192E-12	-1.21854E+0	25.7578E-3
-228.346E-3	-3.66238E-12	-228.701E-3	-228.346E-3	3.20784E-3	40.0299E-12	-1.22828E+0	25.7622E-3
-240.157E-3	-3.75887E-12	-240.504E-3	-240.157E-3	-45.0581E-3	39.9310E-12	-1.23933E+0	30.3909E-3
-251.969E-3	-3.90299E-12	-252.322E-3	-251.969E-3	-130.029E-3	39.9853E-12	-1.30103E+0	28.0404E-3
-263.780E-3	-4.06210E-12	-264.085E-3	-263.780E-3	-58.4596E-3	39.9699E-12	-1.31013E+0	28.9607E-3
-275.591E-3	-4.20461E-12	-275.890E-3	-275.591E-3	114.290E-3	40.0284E-12	-1.25104E+0	26.1599E-3
-287.402E-3	-4.37608E-12	-287.726E-3	-287.402E-3	-11.4123E-3	40.0164E-12	-1.28672E+0	24.7660E-3
-299.213E-3	-4.56562E-12	-299.515E-3	-299.213E-3	-111.322E-3	40.0222E-12	-1.31191E+0	24.7080E-3
-311.024E-3	-4.65223E-12	-311.356E-3	-311.024E-3	-15.6450E-3	40.0022E-12	-1.32781E+0	24.5733E-3
-322.835E-3	-4.77411E-12	-323.146E-3	-322.835E-3	-65.4003E-3	39.9277E-12	-1.36380E+0	28.1559E-3
-334.646E-3	-4.93056E-12	-334.920E-3	-334.646E-3	31.0690E-3	39.9890E-12	-1.32074E+0	27.8134E-3
-346.457E-3	-5.01379E-12	-346.744E-3	-346.457E-3	40.5396E-3	40.0028E-12	-1.32048E+0	26.7480E-3
-358.268E-3	-5.15148E-12	-358.582E-3	-358.268E-3	-111.461E-3	40.0127E-12	-1.36310E+0	23.9678E-3
-370.079E-3	-5.28360E-12	-370.377E-3	-370.079E-3	-72.1923E-3	40.0135E-12	-1.36074E+0	27.0780E-3
-381.890E-3	-5.39647E-12	-382.142E-3	-381.890E-3	-7.20922E-3	40.0013E-12	-1.35784E+0	25.1122E-3
-393.701E-3	-5.49715E-12	-394.021E-3	-393.701E-3	3.98847E-3	40.0570E-12	-1.37480E+0	22.9809E-3
-405.512E-3	-5.62959E-12	-405.829E-3	-405.512E-3	20.6580E-3	39.9179E-12	-1.39128E+0	29.4807E-3
-417.323E-3	-5.75310E-12	-417.622E-3	-417.323E-3	-85.2619E-3	39.9779E-12	-1.43427E+0	29.2851E-3
-429.134E-3	-5.92118E-12	-429.434E-3	-429.134E-3	-30.5571E-3	40.0230E-12	-1.41692E+0	24.1188E-3
-440.945E-3	-6.04605E-12	-441.231E-3	-440.945E-3	-20.0729E-3	39.9595E-12	-1.43123E+0	28.1961E-3
-452.756E-3	-6.34863E-12	-453.032E-3	-452.756E-3	-74.2528E-3	40.0255E-12	-1.47275E+0	27.1212E-3
-464.567E-3	-6.54574E-12	-464.855E-3	-464.567E-3	36.9635E-3	39.9947E-12	-1.45696E+0	28.0180E-3
-476.378E-3	-6.70133E-12	-476.674E-3	-476.378E-3	-100.576E-3	39.9865E-12	-1.49900E+0	26.8506E-3
-488.189E-3	-6.96287E-12	-488.411E-3	-488.189E-3	34.8995E-3	40.0145E-12	-1.48398E+0	27.7231E-3
-500.000E-3	-7.31796E-12	-500.250E-3	-500.000E-3	-70.0974E-3	39.9889E-12	-1.51820E+0	27.2441E-3
