Experiment	bias spectroscopy	
Date	01.12.2015 12:21:46	
User		
X (m)	278.939E-9	
Y (m)	-138.222E-9	
Z (m)	-4.15189E-9	
Z offset (m)	0E+0	
Settling time (s)	30E-3	
Integration time (s)	200E-3	
Z-Ctrl hold	TRUE	
Final Z (m)	-4.15189E-9	
Filter type	None	
Order		
Cutoff frq		
Current (A)	92.5045E-12	
Z (m)	-4.15189E-9	
Phase (deg)	602.77E-3	
Amplitude (m)	39.8336E-12	
Frequency Shift (Hz)	-830.959E-3	
Excitation (V)	29.0922E-3	

[DATA]
Bias calc (V)	Current (A)	Applied Voltage measured (V)	Bias (V)	Phase (deg)	Amplitude (m)	Frequency Shift (Hz)	Excitation (V)
1.00000E+0	92.2727E-12	999.336E-3	1.00000E+0	177.576E-3	39.8997E-12	-914.111E-3	28.2660E-3
988.189E-3	91.8543E-12	987.540E-3	988.189E-3	-283.710E-3	40.0738E-12	-1.02555E+0	20.8453E-3
976.378E-3	90.3161E-12	975.784E-3	976.378E-3	27.6539E-3	39.9472E-12	-967.954E-3	25.2916E-3
964.567E-3	90.7874E-12	963.907E-3	964.567E-3	-148.519E-3	40.0538E-12	-1.01843E+0	21.8101E-3
952.756E-3	89.4067E-12	952.148E-3	952.756E-3	89.3236E-3	39.9785E-12	-957.373E-3	24.7230E-3
940.945E-3	89.1099E-12	940.310E-3	940.945E-3	-23.1282E-3	40.0694E-12	-1.01880E+0	19.9846E-3
929.134E-3	88.5792E-12	928.490E-3	929.134E-3	50.4868E-3	40.0682E-12	-985.512E-3	24.0733E-3
917.323E-3	87.1472E-12	916.740E-3	917.323E-3	-54.8994E-3	39.8964E-12	-996.770E-3	26.9830E-3
905.512E-3	86.9298E-12	904.880E-3	905.512E-3	-111.785E-3	40.0510E-12	-997.184E-3	22.9451E-3
893.701E-3	86.0356E-12	893.125E-3	893.701E-3	48.0009E-3	40.0142E-12	-984.540E-3	23.2719E-3
881.890E-3	85.4094E-12	881.280E-3	881.890E-3	-64.4089E-3	39.7950E-12	-1.01460E+0	29.9000E-3
870.079E-3	85.0345E-12	869.470E-3	870.079E-3	7.05906E-3	40.1036E-12	-1.01393E+0	19.7917E-3
858.268E-3	84.3394E-12	857.653E-3	858.268E-3	70.4426E-3	39.9914E-12	-982.313E-3	24.5284E-3
846.457E-3	83.3855E-12	845.825E-3	846.457E-3	-85.6457E-3	39.9186E-12	-1.02602E+0	25.8618E-3
834.646E-3	82.5305E-12	834.050E-3	834.646E-3	190.333E-3	40.1044E-12	-885.750E-3	25.8652E-3
822.835E-3	82.2512E-12	822.231E-3	822.835E-3	-44.3398E-3	40.0118E-12	-963.025E-3	22.5711E-3
811.024E-3	81.3326E-12	810.409E-3	811.024E-3	-16.7530E-3	39.9432E-12	-927.656E-3	24.6331E-3
799.213E-3	80.5159E-12	798.635E-3	799.213E-3	-107.199E-3	40.0469E-12	-964.099E-3	23.1718E-3
787.402E-3	79.8331E-12	786.813E-3	787.402E-3	57.9064E-3	39.8496E-12	-910.324E-3	27.6791E-3
775.591E-3	79.0312E-12	775.017E-3	775.591E-3	118.206E-3	40.0070E-12	-880.213E-3	25.1122E-3
763.780E-3	78.5447E-12	763.191E-3	763.780E-3	-96.5562E-3	40.0118E-12	-953.278E-3	25.7258E-3
751.969E-3	77.8979E-12	751.416E-3	751.969E-3	77.0469E-3	40.0878E-12	-893.870E-3	23.8955E-3
740.157E-3	77.0198E-12	739.614E-3	740.157E-3	-137.240E-3	40.0384E-12	-974.598E-3	22.4964E-3
728.346E-3	76.0405E-12	727.783E-3	728.346E-3	70.1239E-3	39.9364E-12	-890.337E-3	26.4995E-3
716.535E-3	74.8010E-12	715.989E-3	716.535E-3	-59.5844E-3	39.9437E-12	-928.628E-3	23.6373E-3
704.724E-3	74.3213E-12	704.305E-3	704.724E-3	-62.2319E-3	39.9508E-12	-909.665E-3	25.5167E-3
692.913E-3	73.9952E-12	692.511E-3	692.913E-3	-135.727E-3	40.0725E-12	-953.395E-3	21.6517E-3
681.102E-3	72.9317E-12	680.727E-3	681.102E-3	-97.8766E-3	39.9583E-12	-960.944E-3	21.0916E-3
669.291E-3	69.6414E-12	668.907E-3	669.291E-3	-3.23875E-3	40.0714E-12	-955.641E-3	22.7434E-3
657.480E-3	67.6632E-12	657.069E-3	657.480E-3	-77.2830E-3	39.9654E-12	-979.780E-3	25.5879E-3
645.669E-3	70.8115E-12	645.267E-3	645.669E-3	142.333E-3	40.1231E-12	-902.028E-3	22.2907E-3
633.858E-3	69.7668E-12	633.452E-3	633.858E-3	-2.38538E-3	39.9199E-12	-938.521E-3	24.4091E-3
622.047E-3	69.0962E-12	621.648E-3	622.047E-3	55.4757E-3	39.9733E-12	-936.836E-3	26.1512E-3
610.236E-3	67.6003E-12	609.884E-3	610.236E-3	48.4994E-3	39.9984E-12	-921.069E-3	25.2638E-3
598.425E-3	67.1674E-12	598.077E-3	598.425E-3	-180.412E-3	40.0498E-12	-1.00968E+0	22.8025E-3
586.614E-3	66.0220E-12	586.277E-3	586.614E-3	230.470E-3	39.9505E-12	-876.875E-3	27.6571E-3
574.803E-3	65.9422E-12	574.454E-3	574.803E-3	-130.637E-3	40.1331E-12	-947.388E-3	20.6318E-3
562.992E-3	63.8728E-12	562.670E-3	562.992E-3	99.6341E-3	39.9975E-12	-887.197E-3	26.0111E-3
551.181E-3	63.1605E-12	550.858E-3	551.181E-3	4.54791E-3	40.0408E-12	-934.509E-3	23.4555E-3
539.370E-3	61.7812E-12	538.982E-3	539.370E-3	-170.622E-3	39.8832E-12	-969.097E-3	23.8083E-3
527.559E-3	61.5231E-12	527.198E-3	527.559E-3	74.1257E-3	40.0952E-12	-906.438E-3	25.7117E-3
515.748E-3	59.7128E-12	515.368E-3	515.748E-3	62.2057E-3	39.9151E-12	-924.955E-3	26.6549E-3
503.937E-3	59.5523E-12	503.583E-3	503.937E-3	36.5312E-3	40.0711E-12	-917.743E-3	23.3956E-3
492.126E-3	58.1485E-12	491.763E-3	492.126E-3	-18.8765E-3	39.9401E-12	-940.909E-3	25.1648E-3
480.315E-3	55.2506E-12	479.957E-3	480.315E-3	-202.503E-3	40.0845E-12	-1.00881E+0	23.0168E-3
468.504E-3	51.7030E-12	468.166E-3	468.504E-3	-19.9706E-3	39.9371E-12	-976.069E-3	24.1115E-3
456.693E-3	50.5236E-12	456.350E-3	456.693E-3	-62.4909E-3	40.0690E-12	-985.367E-3	22.8314E-3
444.882E-3	50.6263E-12	444.588E-3	444.882E-3	117.318E-3	40.0376E-12	-928.192E-3	22.5602E-3
433.071E-3	48.7738E-12	432.756E-3	433.071E-3	33.4578E-3	40.0086E-12	-953.036E-3	23.0665E-3
421.260E-3	50.2075E-12	420.948E-3	421.260E-3	68.1563E-3	40.0308E-12	-923.472E-3	25.2411E-3
409.449E-3	45.6566E-12	409.163E-3	409.449E-3	-48.9074E-3	40.0687E-12	-1.01717E+0	27.2590E-3
397.638E-3	46.1737E-12	397.310E-3	397.638E-3	173.582E-3	40.1419E-12	-919.549E-3	22.8152E-3
385.827E-3	49.2554E-12	385.562E-3	385.827E-3	-12.0334E-3	39.9610E-12	-956.290E-3	24.2836E-3
374.016E-3	45.3166E-12	373.709E-3	374.016E-3	-171.036E-3	39.9781E-12	-1.02532E+0	26.0985E-3
362.205E-3	42.3794E-12	361.915E-3	362.205E-3	80.9437E-3	40.0106E-12	-971.659E-3	26.3690E-3
350.394E-3	40.6709E-12	350.161E-3	350.394E-3	72.1781E-3	40.0205E-12	-968.095E-3	25.6376E-3
338.583E-3	40.8275E-12	338.295E-3	338.583E-3	37.9175E-3	39.9875E-12	-958.395E-3	24.3704E-3
326.772E-3	39.3871E-12	326.513E-3	326.772E-3	-53.7379E-3	40.0360E-12	-1.01283E+0	27.2322E-3
314.961E-3	34.9442E-12	314.675E-3	314.961E-3	-132.146E-3	40.0310E-12	-1.04247E+0	25.1581E-3
303.150E-3	33.0448E-12	302.846E-3	303.150E-3	97.6306E-3	40.0625E-12	-994.388E-3	24.8815E-3
291.339E-3	33.2350E-12	291.107E-3	291.339E-3	230.772E-3	39.9081E-12	-933.002E-3	30.9863E-3
279.528E-3	35.2004E-12	279.277E-3	279.528E-3	31.0956E-3	40.0358E-12	-952.906E-3	23.3529E-3
267.717E-3	31.1178E-12	267.459E-3	267.717E-3	-43.3573E-3	39.9765E-12	-1.01224E+0	28.1501E-3
255.906E-3	29.7722E-12	255.644E-3	255.906E-3	-25.5150E-3	40.0042E-12	-1.02827E+0	25.5593E-3
244.094E-3	28.6208E-12	243.873E-3	244.094E-3	-13.2319E-3	40.0229E-12	-1.05148E+0	24.1015E-3
232.283E-3	27.4512E-12	232.020E-3	232.283E-3	-26.5905E-3	40.0803E-12	-1.06194E+0	20.5657E-3
220.472E-3	26.3088E-12	220.196E-3	220.472E-3	27.4572E-3	40.0075E-12	-1.03780E+0	26.5006E-3
208.661E-3	24.6066E-12	208.413E-3	208.661E-3	90.3307E-3	40.0281E-12	-1.01554E+0	25.1757E-3
196.850E-3	22.9460E-12	196.575E-3	196.850E-3	1.07585E-3	39.9993E-12	-1.01731E+0	24.9832E-3
185.039E-3	21.9434E-12	184.806E-3	185.039E-3	-90.2297E-3	39.9777E-12	-1.05674E+0	27.0605E-3
173.228E-3	19.9828E-12	172.996E-3	173.228E-3	-56.5809E-3	39.9513E-12	-1.07758E+0	25.8121E-3
161.417E-3	19.1810E-12	161.169E-3	161.417E-3	11.0672E-3	40.0018E-12	-1.07032E+0	26.8544E-3
149.606E-3	17.6983E-12	149.346E-3	149.606E-3	-68.5475E-3	40.0561E-12	-1.11539E+0	26.3379E-3
137.795E-3	16.2343E-12	137.547E-3	137.795E-3	117.095E-3	39.9527E-12	-1.04862E+0	25.9014E-3
125.984E-3	14.7562E-12	125.782E-3	125.984E-3	-80.1779E-3	40.0036E-12	-1.13879E+0	26.5587E-3
114.173E-3	13.3867E-12	113.949E-3	114.173E-3	-79.9437E-3	39.9331E-12	-1.15345E+0	29.0656E-3
102.362E-3	12.0482E-12	102.145E-3	102.362E-3	-65.2011E-3	40.0783E-12	-1.15848E+0	27.0707E-3
90.5512E-3	10.8277E-12	90.3347E-3	90.5512E-3	114.544E-3	39.9663E-12	-1.10239E+0	27.9185E-3
78.7402E-3	9.53655E-12	78.5050E-3	78.7402E-3	55.2688E-3	40.0210E-12	-1.11141E+0	25.5319E-3
66.9291E-3	8.14852E-12	66.6389E-3	66.9291E-3	-36.0074E-3	39.9991E-12	-1.12701E+0	24.9473E-3
55.1181E-3	6.70128E-12	54.8557E-3	55.1181E-3	144.984E-3	40.0022E-12	-1.07869E+0	26.2343E-3
43.3071E-3	5.31171E-12	43.0409E-3	43.3071E-3	-154.519E-3	40.0016E-12	-1.19843E+0	24.3025E-3
31.4961E-3	3.85369E-12	31.2117E-3	31.4961E-3	-65.7191E-3	40.0749E-12	-1.21030E+0	23.4839E-3
19.6850E-3	2.36646E-12	19.4158E-3	19.6850E-3	86.7077E-3	39.9638E-12	-1.14480E+0	25.0487E-3
7.87402E-3	908.704E-15	7.54987E-3	7.87402E-3	-159.553E-3	39.9559E-12	-1.24843E+0	28.9747E-3
-3.93701E-3	-528.152E-15	-4.32987E-3	-3.93701E-3	187.847E-3	40.0122E-12	-1.14871E+0	25.1471E-3
-15.7480E-3	-1.93252E-12	-16.1188E-3	-15.7480E-3	-97.0033E-3	40.0168E-12	-1.25416E+0	29.3246E-3
-27.5591E-3	-3.35514E-12	-27.9279E-3	-27.5591E-3	-26.9229E-3	39.9732E-12	-1.24049E+0	27.8468E-3
-39.3701E-3	-4.73274E-12	-39.6937E-3	-39.3701E-3	114.839E-3	40.0225E-12	-1.19871E+0	26.0898E-3
-51.1811E-3	-6.08840E-12	-51.5498E-3	-51.1811E-3	40.6539E-3	40.0049E-12	-1.22409E+0	26.7569E-3
-62.9921E-3	-7.40216E-12	-63.3265E-3	-62.9921E-3	-178.968E-3	40.0541E-12	-1.32116E+0	27.3835E-3
-74.8032E-3	-8.15542E-12	-75.1705E-3	-74.8032E-3	85.5359E-3	39.9746E-12	-1.24651E+0	26.4991E-3
-86.6142E-3	-8.98923E-12	-87.0220E-3	-86.6142E-3	181.568E-3	40.0660E-12	-1.19040E+0	26.1627E-3
-98.4252E-3	-9.49886E-12	-98.7896E-3	-98.4252E-3	2.44172E-3	40.0298E-12	-1.24394E+0	25.8705E-3
-110.236E-3	-10.1235E-12	-110.642E-3	-110.236E-3	28.4063E-3	39.9885E-12	-1.23728E+0	27.3760E-3
-122.047E-3	-11.6892E-12	-122.380E-3	-122.047E-3	-165.649E-3	40.0085E-12	-1.31911E+0	27.3816E-3
-133.858E-3	-12.7215E-12	-134.236E-3	-133.858E-3	147.968E-3	40.0415E-12	-1.24919E+0	24.1817E-3
-145.669E-3	-12.6565E-12	-146.032E-3	-145.669E-3	157.361E-3	40.0291E-12	-1.23127E+0	23.0353E-3
-157.480E-3	-12.2416E-12	-157.812E-3	-157.480E-3	-77.0823E-3	40.0013E-12	-1.29977E+0	24.8212E-3
-169.291E-3	-13.0561E-12	-169.685E-3	-169.291E-3	54.8032E-3	40.0060E-12	-1.27691E+0	25.6366E-3
-181.102E-3	-13.8285E-12	-181.436E-3	-181.102E-3	-130.342E-3	40.0353E-12	-1.37369E+0	24.9639E-3
-192.913E-3	-14.3597E-12	-193.238E-3	-192.913E-3	-145.095E-3	39.9663E-12	-1.38290E+0	25.8428E-3
-204.724E-3	-15.1791E-12	-205.069E-3	-204.724E-3	30.5297E-3	39.9707E-12	-1.35473E+0	26.4043E-3
-216.535E-3	-17.7670E-12	-216.864E-3	-216.535E-3	-139.504E-3	40.0534E-12	-1.43161E+0	27.9850E-3
-228.346E-3	-16.8486E-12	-228.687E-3	-228.346E-3	-8.93115E-3	39.9826E-12	-1.41136E+0	27.3782E-3
-240.157E-3	-18.1566E-12	-240.495E-3	-240.157E-3	17.9670E-3	40.0152E-12	-1.41657E+0	25.6181E-3
-251.969E-3	-18.8511E-12	-252.320E-3	-251.969E-3	-79.0941E-3	40.0111E-12	-1.43908E+0	25.1815E-3
-263.780E-3	-20.6177E-12	-264.089E-3	-263.780E-3	-27.0161E-3	39.9271E-12	-1.42055E+0	27.9564E-3
-275.591E-3	-20.5194E-12	-275.892E-3	-275.591E-3	-46.4923E-3	39.9841E-12	-1.43846E+0	27.7636E-3
-287.402E-3	-22.5476E-12	-287.739E-3	-287.402E-3	7.09092E-3	40.0254E-12	-1.42194E+0	27.5713E-3
-299.213E-3	-23.7020E-12	-299.520E-3	-299.213E-3	50.7430E-3	39.9740E-12	-1.42848E+0	27.7936E-3
-311.024E-3	-24.8586E-12	-311.350E-3	-311.024E-3	-52.2500E-3	40.0465E-12	-1.44929E+0	25.6020E-3
-322.835E-3	-25.1470E-12	-323.145E-3	-322.835E-3	81.0348E-3	40.0310E-12	-1.40830E+0	28.5312E-3
-334.646E-3	-24.8812E-12	-334.911E-3	-334.646E-3	-268.925E-3	39.9287E-12	-1.53569E+0	27.3426E-3
-346.457E-3	-28.3698E-12	-346.736E-3	-346.457E-3	130.259E-3	40.0219E-12	-1.44602E+0	26.4101E-3
-358.268E-3	-27.6594E-12	-358.570E-3	-358.268E-3	-58.0882E-3	39.9486E-12	-1.50065E+0	27.6366E-3
-370.079E-3	-29.4880E-12	-370.377E-3	-370.079E-3	-9.68603E-3	40.0211E-12	-1.51183E+0	28.8969E-3
-381.890E-3	-30.5834E-12	-382.143E-3	-381.890E-3	241.047E-3	40.0307E-12	-1.45565E+0	26.1233E-3
-393.701E-3	-31.9677E-12	-394.017E-3	-393.701E-3	-43.9984E-3	39.9454E-12	-1.52505E+0	28.0980E-3
-405.512E-3	-33.6161E-12	-405.818E-3	-405.512E-3	57.4435E-3	40.0486E-12	-1.54406E+0	26.4995E-3
-417.323E-3	-34.8623E-12	-417.621E-3	-417.323E-3	-101.610E-3	39.9744E-12	-1.62567E+0	28.2695E-3
-429.134E-3	-35.7131E-12	-429.431E-3	-429.134E-3	-89.2921E-3	39.9759E-12	-1.62147E+0	27.2688E-3
-440.945E-3	-36.8160E-12	-441.234E-3	-440.945E-3	76.7837E-3	40.0319E-12	-1.58040E+0	27.6389E-3
-452.756E-3	-37.9393E-12	-453.041E-3	-452.756E-3	-22.5979E-3	39.9727E-12	-1.61625E+0	27.9079E-3
-464.567E-3	-38.7698E-12	-464.849E-3	-464.567E-3	-128.841E-3	39.9568E-12	-1.66904E+0	30.8800E-3
-476.378E-3	-39.6575E-12	-476.689E-3	-476.378E-3	-2.93678E-3	40.0188E-12	-1.65258E+0	29.4209E-3
-488.189E-3	-39.9382E-12	-488.419E-3	-488.189E-3	60.5286E-3	40.0061E-12	-1.65912E+0	27.0551E-3
-500.000E-3	-41.0835E-12	-500.266E-3	-500.000E-3	-16.5108E-3	40.0063E-12	-1.67506E+0	26.4264E-3
