Experiment	bias spectroscopy	
Date	01.12.2015 03:30:02	
User		
X (m)	281.113E-9	
Y (m)	-138.983E-9	
Z (m)	-4.07703E-9	
Z offset (m)	0E+0	
Settling time (s)	30E-3	
Integration time (s)	200E-3	
Z-Ctrl hold	TRUE	
Final Z (m)	-4.07703E-9	
Filter type	None	
Order		
Cutoff frq		
Current (A)	43.1039E-12	
Z (m)	-4.07703E-9	
Phase (deg)	95.7112E-3	
Amplitude (m)	39.7264E-12	
Frequency Shift (Hz)	-1.1025E+0	
Excitation (V)	37.5462E-3	

[DATA]
Bias calc (V)	Current (A)	Applied Voltage measured (V)	Bias (V)	Phase (deg)	Amplitude (m)	Frequency Shift (Hz)	Excitation (V)
1.00000E+0	44.5126E-12	999.316E-3	1.00000E+0	46.5888E-6	40.0271E-12	-1.12630E+0	23.6540E-3
988.189E-3	44.0428E-12	987.527E-3	988.189E-3	-41.6079E-3	40.0443E-12	-1.12841E+0	22.0410E-3
976.378E-3	43.1558E-12	975.768E-3	976.378E-3	72.8209E-3	39.9179E-12	-1.09735E+0	25.3475E-3
964.567E-3	42.7533E-12	963.904E-3	964.567E-3	-98.2878E-3	40.0406E-12	-1.13777E+0	25.4705E-3
952.756E-3	42.4553E-12	952.147E-3	952.756E-3	132.283E-3	40.0568E-12	-1.09119E+0	25.2220E-3
940.945E-3	41.9744E-12	940.304E-3	940.945E-3	66.7354E-3	39.9450E-12	-1.07544E+0	26.5440E-3
929.134E-3	41.2112E-12	928.482E-3	929.134E-3	-32.0536E-3	39.9934E-12	-1.10467E+0	22.6368E-3
917.323E-3	40.5500E-12	916.733E-3	917.323E-3	101.576E-3	39.9650E-12	-1.04123E+0	25.5627E-3
905.512E-3	40.2904E-12	904.880E-3	905.512E-3	-103.568E-3	40.0417E-12	-1.10383E+0	22.9183E-3
893.701E-3	39.6211E-12	893.123E-3	893.701E-3	60.9485E-3	39.9608E-12	-1.05784E+0	26.8733E-3
881.890E-3	38.9998E-12	881.278E-3	881.890E-3	115.332E-3	39.9614E-12	-1.04362E+0	25.0801E-3
870.079E-3	38.4077E-12	869.476E-3	870.079E-3	148.685E-3	40.0096E-12	-998.266E-3	27.3477E-3
858.268E-3	37.8408E-12	857.656E-3	858.268E-3	-62.7781E-3	40.0837E-12	-1.08615E+0	21.6675E-3
846.457E-3	37.6665E-12	845.829E-3	846.457E-3	-28.6138E-3	40.0065E-12	-1.08710E+0	26.2933E-3
834.646E-3	36.7879E-12	834.054E-3	834.646E-3	63.8451E-3	39.9433E-12	-1.06659E+0	23.9509E-3
822.835E-3	36.5610E-12	822.235E-3	822.835E-3	10.6880E-3	40.0439E-12	-1.04835E+0	24.5995E-3
811.024E-3	35.6100E-12	810.416E-3	811.024E-3	-156.950E-3	40.0227E-12	-1.12264E+0	24.6723E-3
799.213E-3	35.6904E-12	798.647E-3	799.213E-3	70.1727E-3	39.9630E-12	-1.03596E+0	28.3528E-3
787.402E-3	34.3909E-12	786.815E-3	787.402E-3	103.976E-3	39.9410E-12	-1.00222E+0	24.8085E-3
775.591E-3	34.1175E-12	775.026E-3	775.591E-3	-81.1300E-3	40.0226E-12	-1.05119E+0	25.3452E-3
763.780E-3	33.7805E-12	763.199E-3	763.780E-3	-156.287E-3	40.1116E-12	-1.07524E+0	21.7511E-3
751.969E-3	33.3466E-12	751.423E-3	751.969E-3	-54.7420E-3	39.9974E-12	-1.06296E+0	22.8266E-3
740.157E-3	32.3317E-12	739.624E-3	740.157E-3	-6.44527E-3	39.8733E-12	-1.04034E+0	26.3377E-3
728.346E-3	32.1716E-12	727.779E-3	728.346E-3	8.72447E-3	39.9611E-12	-1.03387E+0	29.0862E-3
716.535E-3	31.6555E-12	715.986E-3	716.535E-3	-16.6723E-3	40.0168E-12	-1.06774E+0	25.0894E-3
704.724E-3	31.0532E-12	704.300E-3	704.724E-3	114.431E-3	40.0950E-12	-1.01793E+0	22.4047E-3
692.913E-3	30.7829E-12	692.500E-3	692.913E-3	348.796E-3	39.9906E-12	-909.545E-3	25.9804E-3
681.102E-3	29.8545E-12	680.722E-3	681.102E-3	-95.7003E-3	39.8740E-12	-1.02750E+0	28.6837E-3
669.291E-3	29.7718E-12	668.910E-3	669.291E-3	1.48031E-3	40.0879E-12	-997.955E-3	23.7918E-3
657.480E-3	29.1940E-12	657.070E-3	657.480E-3	106.687E-3	39.9895E-12	-967.665E-3	26.7508E-3
645.669E-3	28.5797E-12	645.266E-3	645.669E-3	-207.745E-3	40.1055E-12	-1.07742E+0	22.3667E-3
633.858E-3	27.8072E-12	633.472E-3	633.858E-3	43.1639E-3	39.9845E-12	-976.479E-3	23.9322E-3
622.047E-3	27.3035E-12	621.666E-3	622.047E-3	3.28684E-3	39.9756E-12	-984.091E-3	25.2028E-3
610.236E-3	26.8801E-12	609.890E-3	610.236E-3	-25.1483E-3	39.9719E-12	-1.00097E+0	25.1387E-3
598.425E-3	26.4647E-12	598.087E-3	598.425E-3	-10.2308E-3	40.0820E-12	-1.00784E+0	24.4483E-3
586.614E-3	25.7177E-12	586.273E-3	586.614E-3	-46.7138E-3	40.0504E-12	-1.03052E+0	26.0981E-3
574.803E-3	25.2591E-12	574.453E-3	574.803E-3	55.9999E-3	39.9340E-12	-977.612E-3	26.9026E-3
562.992E-3	24.7850E-12	562.676E-3	562.992E-3	151.469E-3	39.9632E-12	-948.275E-3	26.2490E-3
551.181E-3	23.9982E-12	550.863E-3	551.181E-3	-33.1173E-3	40.0356E-12	-988.847E-3	24.1168E-3
539.370E-3	23.5565E-12	539.004E-3	539.370E-3	-18.5188E-3	40.0075E-12	-989.902E-3	22.6654E-3
527.559E-3	22.8317E-12	527.220E-3	527.559E-3	87.0005E-3	39.9463E-12	-967.619E-3	24.7645E-3
515.748E-3	22.3781E-12	515.379E-3	515.748E-3	-120.639E-3	39.9873E-12	-1.02513E+0	26.0440E-3
503.937E-3	21.7471E-12	503.583E-3	503.937E-3	48.4643E-3	39.9624E-12	-985.479E-3	25.4212E-3
492.126E-3	21.3655E-12	491.767E-3	492.126E-3	-137.615E-3	40.0428E-12	-1.06243E+0	26.5432E-3
480.315E-3	20.8417E-12	479.952E-3	480.315E-3	95.6941E-3	40.0505E-12	-998.399E-3	23.3551E-3
468.504E-3	20.2800E-12	468.155E-3	468.504E-3	-18.1438E-3	40.0290E-12	-1.01879E+0	26.1547E-3
456.693E-3	19.8047E-12	456.344E-3	456.693E-3	-85.2314E-3	40.0288E-12	-1.02955E+0	24.6187E-3
444.882E-3	19.1158E-12	444.579E-3	444.882E-3	-98.7146E-3	39.9760E-12	-1.04520E+0	23.1843E-3
433.071E-3	18.5695E-12	432.748E-3	433.071E-3	118.278E-3	39.9540E-12	-997.632E-3	25.3759E-3
421.260E-3	17.9538E-12	420.939E-3	421.260E-3	45.8748E-3	40.0197E-12	-995.784E-3	24.2334E-3
409.449E-3	17.5114E-12	409.160E-3	409.449E-3	-82.6289E-3	40.0020E-12	-1.04473E+0	23.7810E-3
397.638E-3	16.9213E-12	397.312E-3	397.638E-3	72.8196E-3	40.0137E-12	-1.01571E+0	25.9056E-3
385.827E-3	16.4764E-12	385.545E-3	385.827E-3	-2.95767E-3	40.0334E-12	-1.01630E+0	24.0618E-3
374.016E-3	15.7522E-12	373.705E-3	374.016E-3	174.245E-3	39.9862E-12	-925.551E-3	24.9725E-3
362.205E-3	15.3317E-12	361.914E-3	362.205E-3	-159.969E-3	39.9720E-12	-1.04093E+0	27.2157E-3
350.394E-3	14.6959E-12	350.165E-3	350.394E-3	-83.7543E-3	40.0138E-12	-1.06399E+0	25.6998E-3
338.583E-3	14.1899E-12	338.311E-3	338.583E-3	116.674E-3	40.0379E-12	-988.001E-3	26.9929E-3
326.772E-3	13.6383E-12	326.524E-3	326.772E-3	-27.9994E-3	40.0171E-12	-1.02612E+0	24.7642E-3
314.961E-3	13.2659E-12	314.692E-3	314.961E-3	89.2898E-3	39.9969E-12	-992.739E-3	27.0781E-3
303.150E-3	12.6288E-12	302.864E-3	303.150E-3	10.4411E-3	39.9731E-12	-988.421E-3	26.9474E-3
291.339E-3	12.1294E-12	291.119E-3	291.339E-3	-75.6445E-3	39.8948E-12	-1.03768E+0	29.0506E-3
279.528E-3	11.6478E-12	279.285E-3	279.528E-3	-83.2055E-3	40.0650E-12	-1.06371E+0	24.7700E-3
267.717E-3	11.1997E-12	267.470E-3	267.717E-3	16.5223E-3	39.9914E-12	-1.06031E+0	25.0967E-3
255.906E-3	10.6312E-12	255.649E-3	255.906E-3	-93.8720E-3	40.0306E-12	-1.10040E+0	25.4678E-3
244.094E-3	10.1035E-12	243.876E-3	244.094E-3	99.5861E-3	40.0264E-12	-1.06543E+0	27.0940E-3
232.283E-3	9.51139E-12	232.025E-3	232.283E-3	94.1525E-3	39.9671E-12	-1.04973E+0	26.0426E-3
220.472E-3	8.96932E-12	220.183E-3	220.472E-3	-109.717E-3	39.9884E-12	-1.10077E+0	26.3038E-3
208.661E-3	8.50365E-12	208.408E-3	208.661E-3	-70.5471E-3	40.0570E-12	-1.10756E+0	25.2316E-3
196.850E-3	7.93283E-12	196.576E-3	196.850E-3	118.548E-3	39.9977E-12	-1.05212E+0	27.1148E-3
185.039E-3	7.40696E-12	184.803E-3	185.039E-3	49.6359E-3	39.9647E-12	-1.07050E+0	27.1325E-3
173.228E-3	6.94581E-12	172.993E-3	173.228E-3	-63.5880E-3	40.0032E-12	-1.09947E+0	25.2599E-3
161.417E-3	6.38996E-12	161.150E-3	161.417E-3	-9.52284E-3	40.0680E-12	-1.08207E+0	23.6962E-3
149.606E-3	5.91622E-12	149.326E-3	149.606E-3	57.5490E-3	39.9802E-12	-1.06193E+0	26.0041E-3
137.795E-3	5.46479E-12	137.535E-3	137.795E-3	-141.051E-3	40.0091E-12	-1.12622E+0	26.1343E-3
125.984E-3	4.95919E-12	125.773E-3	125.984E-3	-47.1969E-3	39.9909E-12	-1.11760E+0	25.7737E-3
114.173E-3	4.53777E-12	113.943E-3	114.173E-3	-14.8706E-3	40.0726E-12	-1.12548E+0	24.3249E-3
102.362E-3	4.00863E-12	102.128E-3	102.362E-3	55.3729E-3	39.9544E-12	-1.10459E+0	27.0597E-3
90.5512E-3	3.50453E-12	90.3169E-3	90.5512E-3	-110.433E-3	40.0198E-12	-1.15177E+0	26.9246E-3
78.7402E-3	3.04076E-12	78.4802E-3	78.7402E-3	80.0066E-3	40.0157E-12	-1.10169E+0	24.1120E-3
66.9291E-3	2.54729E-12	66.6182E-3	66.9291E-3	36.4400E-3	39.9526E-12	-1.11160E+0	25.7195E-3
55.1181E-3	2.08947E-12	54.8432E-3	55.1181E-3	-22.6682E-3	40.0193E-12	-1.13113E+0	28.5301E-3
43.3071E-3	1.59776E-12	43.0267E-3	43.3071E-3	-10.7568E-3	40.0329E-12	-1.16549E+0	27.6952E-3
31.4961E-3	1.11243E-12	31.2004E-3	31.4961E-3	-77.8219E-3	40.0023E-12	-1.18060E+0	25.6119E-3
19.6850E-3	635.330E-15	19.4042E-3	19.6850E-3	28.5864E-3	39.9808E-12	-1.16517E+0	27.5598E-3
7.87402E-3	190.033E-15	7.55074E-3	7.87402E-3	20.7634E-3	40.0428E-12	-1.16717E+0	24.7689E-3
-3.93701E-3	-269.065E-15	-4.33344E-3	-3.93701E-3	38.8413E-3	40.0102E-12	-1.15202E+0	25.2402E-3
-15.7480E-3	-773.001E-15	-16.1196E-3	-15.7480E-3	-189.019E-3	40.0045E-12	-1.23899E+0	25.8797E-3
-27.5591E-3	-1.29710E-12	-27.9297E-3	-27.5591E-3	94.5369E-3	39.9362E-12	-1.18464E+0	26.1136E-3
-39.3701E-3	-1.81838E-12	-39.7077E-3	-39.3701E-3	-24.4312E-3	40.0483E-12	-1.22941E+0	26.1658E-3
-51.1811E-3	-2.33061E-12	-51.5537E-3	-51.1811E-3	-51.0587E-3	40.0039E-12	-1.26146E+0	27.9051E-3
-62.9921E-3	-2.84637E-12	-63.3285E-3	-62.9921E-3	-20.3603E-3	40.0202E-12	-1.24435E+0	23.7094E-3
-74.8032E-3	-3.18971E-12	-75.1697E-3	-74.8032E-3	-9.98507E-3	40.0949E-12	-1.24215E+0	23.5043E-3
-86.6142E-3	-3.47189E-12	-87.0334E-3	-86.6142E-3	94.5118E-3	40.0866E-12	-1.20384E+0	22.7370E-3
-98.4252E-3	-3.64694E-12	-98.7964E-3	-98.4252E-3	-16.1556E-3	39.9454E-12	-1.24562E+0	25.4252E-3
-110.236E-3	-3.83965E-12	-110.654E-3	-110.236E-3	-21.7398E-3	39.9510E-12	-1.23667E+0	28.8034E-3
-122.047E-3	-4.15728E-12	-122.398E-3	-122.047E-3	-41.5611E-3	39.9542E-12	-1.28415E+0	27.4010E-3
-133.858E-3	-4.47112E-12	-134.253E-3	-133.858E-3	-60.8618E-3	40.0602E-12	-1.28773E+0	22.8928E-3
-145.669E-3	-4.73572E-12	-146.042E-3	-145.669E-3	29.7737E-3	39.9695E-12	-1.25866E+0	26.5712E-3
-157.480E-3	-5.05212E-12	-157.830E-3	-157.480E-3	18.5518E-3	40.0119E-12	-1.23523E+0	27.3761E-3
-169.291E-3	-5.40822E-12	-169.702E-3	-169.291E-3	-135.674E-3	40.0008E-12	-1.31927E+0	28.8209E-3
-181.102E-3	-5.74241E-12	-181.446E-3	-181.102E-3	-23.5146E-3	40.0581E-12	-1.30938E+0	24.2515E-3
-192.913E-3	-6.05626E-12	-193.255E-3	-192.913E-3	50.0589E-3	39.9302E-12	-1.28002E+0	30.7608E-3
-204.724E-3	-6.27993E-12	-205.084E-3	-204.724E-3	-145.937E-3	39.9577E-12	-1.33176E+0	26.5337E-3
-216.535E-3	-6.62076E-12	-216.884E-3	-216.535E-3	46.1442E-3	40.0857E-12	-1.29376E+0	26.3448E-3
-228.346E-3	-6.86852E-12	-228.704E-3	-228.346E-3	-104.976E-3	39.9820E-12	-1.34441E+0	29.8713E-3
-240.157E-3	-7.17322E-12	-240.503E-3	-240.157E-3	-70.3101E-3	40.0078E-12	-1.36432E+0	27.1228E-3
-251.969E-3	-7.54165E-12	-252.327E-3	-251.969E-3	3.23449E-3	39.9486E-12	-1.34103E+0	27.1574E-3
-263.780E-3	-7.83763E-12	-264.097E-3	-263.780E-3	-184.488E-3	40.0377E-12	-1.42602E+0	26.5835E-3
-275.591E-3	-8.28136E-12	-275.894E-3	-275.591E-3	-25.1808E-3	39.9939E-12	-1.40139E+0	24.7108E-3
-287.402E-3	-8.50861E-12	-287.739E-3	-287.402E-3	54.7768E-3	39.9724E-12	-1.38543E+0	25.5566E-3
-299.213E-3	-8.85886E-12	-299.531E-3	-299.213E-3	-62.4824E-3	39.9190E-12	-1.40470E+0	28.2406E-3
-311.024E-3	-9.27914E-12	-311.357E-3	-311.024E-3	21.9745E-3	40.0645E-12	-1.37966E+0	23.9325E-3
-322.835E-3	-9.53816E-12	-323.142E-3	-322.835E-3	-32.1379E-3	39.9830E-12	-1.40585E+0	26.8753E-3
-334.646E-3	-9.96551E-12	-334.924E-3	-334.646E-3	-16.7421E-3	40.0003E-12	-1.42113E+0	23.0420E-3
-346.457E-3	-10.2606E-12	-346.734E-3	-346.457E-3	-155.366E-3	40.0034E-12	-1.47143E+0	27.7227E-3
-358.268E-3	-10.7194E-12	-358.570E-3	-358.268E-3	-130.253E-3	39.9546E-12	-1.48948E+0	28.1627E-3
-370.079E-3	-10.9762E-12	-370.372E-3	-370.079E-3	-40.9590E-3	39.9864E-12	-1.49082E+0	26.8440E-3
-381.890E-3	-11.4488E-12	-382.140E-3	-381.890E-3	-14.6824E-3	40.0153E-12	-1.49080E+0	28.1579E-3
-393.701E-3	-11.6826E-12	-394.013E-3	-393.701E-3	18.0086E-3	39.9661E-12	-1.49044E+0	26.8563E-3
-405.512E-3	-12.1829E-12	-405.824E-3	-405.512E-3	11.9951E-3	40.1015E-12	-1.50847E+0	25.5198E-3
-417.323E-3	-12.4593E-12	-417.625E-3	-417.323E-3	-31.9864E-3	39.9222E-12	-1.51251E+0	30.1643E-3
-429.134E-3	-12.9774E-12	-429.436E-3	-429.134E-3	-51.9903E-3	39.9297E-12	-1.54360E+0	26.7094E-3
-440.945E-3	-13.5441E-12	-441.240E-3	-440.945E-3	-138.511E-3	39.9671E-12	-1.58795E+0	28.8391E-3
-452.756E-3	-14.0567E-12	-453.044E-3	-452.756E-3	-10.5848E-3	40.0400E-12	-1.57140E+0	27.2044E-3
-464.567E-3	-14.6985E-12	-464.864E-3	-464.567E-3	90.8406E-3	40.0515E-12	-1.55686E+0	27.6360E-3
-476.378E-3	-15.2520E-12	-476.693E-3	-476.378E-3	-14.4999E-3	40.0470E-12	-1.59501E+0	23.2334E-3
-488.189E-3	-15.9632E-12	-488.431E-3	-488.189E-3	-46.3030E-3	40.0183E-12	-1.63166E+0	28.0370E-3
-500.000E-3	-16.5125E-12	-500.268E-3	-500.000E-3	90.6913E-3	40.0012E-12	-1.57969E+0	24.2207E-3
