Experiment	bias spectroscopy	
Date	01.12.2015 12:33:21	
User		
X (m)	279.48E-9	
Y (m)	-138.171E-9	
Z (m)	-4.15189E-9	
Z offset (m)	0E+0	
Settling time (s)	30E-3	
Integration time (s)	200E-3	
Z-Ctrl hold	TRUE	
Final Z (m)	-4.15189E-9	
Filter type	None	
Order		
Cutoff frq		
Current (A)	58.3661E-12	
Z (m)	-4.15189E-9	
Phase (deg)	250.181E-3	
Amplitude (m)	40.0176E-12	
Frequency Shift (Hz)	-949.602E-3	
Excitation (V)	22.4736E-3	

[DATA]
Bias calc (V)	Current (A)	Applied Voltage measured (V)	Bias (V)	Phase (deg)	Amplitude (m)	Frequency Shift (Hz)	Excitation (V)
1.00000E+0	58.0626E-12	999.340E-3	1.00000E+0	110.161E-3	39.9748E-12	-1.07697E+0	24.7377E-3
988.189E-3	57.6396E-12	987.542E-3	988.189E-3	71.2048E-3	39.9957E-12	-1.05102E+0	24.2303E-3
976.378E-3	57.3097E-12	975.780E-3	976.378E-3	-56.5201E-3	40.0707E-12	-1.05876E+0	24.5792E-3
964.567E-3	56.7285E-12	963.909E-3	964.567E-3	-28.6870E-3	40.0584E-12	-1.07283E+0	22.9845E-3
952.756E-3	56.0189E-12	952.161E-3	952.756E-3	65.1602E-3	39.9339E-12	-1.02842E+0	25.3555E-3
940.945E-3	55.6801E-12	940.322E-3	940.945E-3	-47.6539E-3	39.9459E-12	-1.05645E+0	26.8522E-3
929.134E-3	54.8678E-12	928.500E-3	929.134E-3	199.416E-3	39.8951E-12	-983.323E-3	27.0734E-3
917.323E-3	55.0606E-12	916.746E-3	917.323E-3	-13.3332E-3	40.0475E-12	-1.04229E+0	26.2156E-3
905.512E-3	54.8118E-12	904.880E-3	905.512E-3	-75.1312E-3	40.1261E-12	-1.06506E+0	19.2348E-3
893.701E-3	53.8011E-12	893.123E-3	893.701E-3	73.9297E-3	40.0226E-12	-1.00701E+0	23.9781E-3
881.890E-3	52.8437E-12	881.276E-3	881.890E-3	79.3273E-3	39.9101E-12	-995.640E-3	23.9512E-3
870.079E-3	52.0607E-12	869.473E-3	870.079E-3	155.345E-3	39.9667E-12	-984.997E-3	25.1192E-3
858.268E-3	51.4598E-12	857.646E-3	858.268E-3	193.997E-3	39.9780E-12	-931.642E-3	24.1364E-3
846.457E-3	51.8336E-12	845.812E-3	846.457E-3	71.4849E-3	40.0433E-12	-954.357E-3	26.7611E-3
834.646E-3	50.9675E-12	834.039E-3	834.646E-3	-32.8697E-3	40.0010E-12	-1.00414E+0	26.0087E-3
822.835E-3	50.8225E-12	822.228E-3	822.835E-3	25.6247E-3	40.0511E-12	-971.843E-3	20.0563E-3
811.024E-3	50.0473E-12	810.409E-3	811.024E-3	-12.9330E-3	39.9849E-12	-989.712E-3	26.6642E-3
799.213E-3	49.4629E-12	798.639E-3	799.213E-3	-74.5647E-3	40.0447E-12	-1.00077E+0	24.5583E-3
787.402E-3	48.7665E-12	786.806E-3	787.402E-3	76.0642E-3	40.0403E-12	-952.137E-3	25.6763E-3
775.591E-3	48.1126E-12	775.015E-3	775.591E-3	48.4434E-3	39.9758E-12	-981.218E-3	24.2580E-3
763.780E-3	47.4299E-12	763.187E-3	763.780E-3	-47.4181E-3	39.9409E-12	-1.00624E+0	28.1810E-3
751.969E-3	46.8594E-12	751.413E-3	751.969E-3	162.814E-3	40.0088E-12	-953.723E-3	24.7774E-3
740.157E-3	46.8637E-12	739.611E-3	740.157E-3	10.2378E-3	39.9937E-12	-969.476E-3	25.7590E-3
728.346E-3	45.7154E-12	727.775E-3	728.346E-3	42.7070E-3	40.0374E-12	-941.084E-3	21.2908E-3
716.535E-3	45.1766E-12	715.988E-3	716.535E-3	-9.57110E-3	40.0189E-12	-975.352E-3	26.8695E-3
704.724E-3	44.8196E-12	704.290E-3	704.724E-3	-144.898E-3	39.9946E-12	-1.01003E+0	23.2317E-3
692.913E-3	44.0420E-12	692.497E-3	692.913E-3	18.4545E-3	40.0283E-12	-972.518E-3	21.8573E-3
681.102E-3	43.1104E-12	680.718E-3	681.102E-3	-53.3381E-3	39.9981E-12	-1.00540E+0	26.1637E-3
669.291E-3	43.1466E-12	668.897E-3	669.291E-3	-41.3813E-3	40.0749E-12	-993.706E-3	21.5084E-3
657.480E-3	41.9023E-12	657.065E-3	657.480E-3	211.991E-3	39.9683E-12	-909.371E-3	25.7199E-3
645.669E-3	41.6872E-12	645.260E-3	645.669E-3	-10.3642E-3	40.0051E-12	-956.439E-3	24.2419E-3
633.858E-3	40.8332E-12	633.448E-3	633.858E-3	124.152E-3	40.0245E-12	-916.880E-3	24.7994E-3
622.047E-3	40.0106E-12	621.651E-3	622.047E-3	-156.305E-3	39.9965E-12	-993.238E-3	23.9542E-3
610.236E-3	39.5416E-12	609.879E-3	610.236E-3	17.6524E-3	40.0734E-12	-952.634E-3	23.5495E-3
598.425E-3	39.1306E-12	598.071E-3	598.425E-3	149.479E-3	39.9756E-12	-895.520E-3	26.6861E-3
586.614E-3	38.2916E-12	586.264E-3	586.614E-3	-126.431E-3	40.0265E-12	-962.302E-3	24.2950E-3
574.803E-3	37.5284E-12	574.446E-3	574.803E-3	54.9634E-3	40.0016E-12	-923.587E-3	24.1735E-3
562.992E-3	36.7091E-12	562.667E-3	562.992E-3	-220.884E-3	40.0215E-12	-1.03019E+0	21.2001E-3
551.181E-3	35.8830E-12	550.844E-3	551.181E-3	91.9968E-3	39.9390E-12	-963.318E-3	28.2476E-3
539.370E-3	35.2687E-12	538.981E-3	539.370E-3	130.457E-3	40.0002E-12	-918.545E-3	23.5699E-3
527.559E-3	34.7612E-12	527.202E-3	527.559E-3	-53.9522E-3	40.0454E-12	-973.182E-3	24.3564E-3
515.748E-3	33.8159E-12	515.372E-3	515.748E-3	9.38546E-3	39.9515E-12	-936.914E-3	25.8295E-3
503.937E-3	33.1294E-12	503.585E-3	503.937E-3	-7.62893E-3	40.0775E-12	-937.768E-3	23.9104E-3
492.126E-3	32.6002E-12	491.753E-3	492.126E-3	153.241E-3	39.9909E-12	-906.623E-3	27.2817E-3
480.315E-3	31.7865E-12	479.946E-3	480.315E-3	-105.392E-3	40.0309E-12	-970.337E-3	23.6135E-3
468.504E-3	30.9314E-12	468.149E-3	468.504E-3	-145.403E-3	39.9459E-12	-1.01501E+0	30.2249E-3
456.693E-3	30.2391E-12	456.339E-3	456.693E-3	134.163E-3	40.0284E-12	-914.521E-3	26.2484E-3
444.882E-3	29.3124E-12	444.575E-3	444.882E-3	11.3512E-3	39.9532E-12	-932.777E-3	26.2592E-3
433.071E-3	28.7452E-12	432.738E-3	433.071E-3	74.3360E-3	40.0397E-12	-926.140E-3	23.3260E-3
421.260E-3	27.8640E-12	420.931E-3	421.260E-3	82.7804E-3	39.9109E-12	-887.263E-3	29.8218E-3
409.449E-3	27.0415E-12	409.158E-3	409.449E-3	51.2320E-3	40.0453E-12	-910.678E-3	23.8341E-3
397.638E-3	26.2571E-12	397.301E-3	397.638E-3	-130.239E-3	40.0617E-12	-980.321E-3	24.5480E-3
385.827E-3	25.3647E-12	385.548E-3	385.827E-3	-54.1396E-3	39.9569E-12	-978.854E-3	25.2431E-3
374.016E-3	24.8163E-12	373.706E-3	374.016E-3	-58.1738E-3	40.0339E-12	-996.938E-3	24.2990E-3
362.205E-3	24.0648E-12	361.901E-3	362.205E-3	-34.9363E-3	40.0052E-12	-981.078E-3	26.9609E-3
350.394E-3	23.1388E-12	350.152E-3	350.394E-3	81.7133E-3	39.9813E-12	-968.074E-3	27.5925E-3
338.583E-3	22.3999E-12	338.297E-3	338.583E-3	-23.0288E-3	39.9584E-12	-1.00563E+0	27.7635E-3
326.772E-3	21.4382E-12	326.513E-3	326.772E-3	157.568E-3	40.0081E-12	-937.408E-3	29.3248E-3
314.961E-3	20.7660E-12	314.670E-3	314.961E-3	-10.0164E-3	39.9228E-12	-973.995E-3	29.1010E-3
303.150E-3	19.9623E-12	302.852E-3	303.150E-3	-12.0574E-3	40.0731E-12	-971.061E-3	24.6485E-3
291.339E-3	19.1997E-12	291.108E-3	291.339E-3	74.1735E-3	39.9880E-12	-937.082E-3	23.8067E-3
279.528E-3	18.3091E-12	279.277E-3	279.528E-3	-271.505E-3	40.0251E-12	-1.03605E+0	25.0834E-3
267.717E-3	17.7453E-12	267.456E-3	267.717E-3	-8.68767E-3	40.0418E-12	-982.741E-3	25.4291E-3
255.906E-3	16.7492E-12	255.631E-3	255.906E-3	-12.5926E-3	39.9652E-12	-986.001E-3	27.3281E-3
244.094E-3	15.8590E-12	243.859E-3	244.094E-3	50.1148E-3	40.0014E-12	-963.386E-3	26.3471E-3
232.283E-3	15.1274E-12	232.011E-3	232.283E-3	3.83880E-3	39.9669E-12	-979.157E-3	23.4152E-3
220.472E-3	14.4604E-12	220.184E-3	220.472E-3	-30.4285E-3	39.9989E-12	-979.861E-3	26.2525E-3
208.661E-3	13.7011E-12	208.408E-3	208.661E-3	32.0921E-3	40.0580E-12	-982.519E-3	20.9516E-3
196.850E-3	12.7865E-12	196.570E-3	196.850E-3	-99.9932E-3	39.9755E-12	-1.03183E+0	25.2133E-3
185.039E-3	11.9604E-12	184.802E-3	185.039E-3	-1.68829E-3	39.9245E-12	-1.01139E+0	26.8950E-3
173.228E-3	11.3038E-12	172.989E-3	173.228E-3	-106.972E-3	40.0222E-12	-1.06501E+0	29.2448E-3
161.417E-3	10.4686E-12	161.156E-3	161.417E-3	-24.8979E-3	40.0074E-12	-1.06452E+0	26.9942E-3
149.606E-3	9.74680E-12	149.327E-3	149.606E-3	77.9024E-3	39.9996E-12	-1.02091E+0	26.7029E-3
137.795E-3	8.94360E-12	137.538E-3	137.795E-3	96.5906E-3	39.9624E-12	-1.00668E+0	29.0755E-3
125.984E-3	8.24105E-12	125.780E-3	125.984E-3	-99.9078E-3	40.0826E-12	-1.06954E+0	23.3359E-3
114.173E-3	7.44782E-12	113.947E-3	114.173E-3	-54.6631E-3	40.0312E-12	-1.06960E+0	22.3483E-3
102.362E-3	6.71493E-12	102.144E-3	102.362E-3	-76.2681E-3	40.0238E-12	-1.09463E+0	25.7001E-3
90.5512E-3	5.83212E-12	90.3311E-3	90.5512E-3	3.94823E-3	39.9218E-12	-1.07303E+0	28.5788E-3
78.7402E-3	5.08139E-12	78.4954E-3	78.7402E-3	-74.0457E-3	40.0680E-12	-1.11450E+0	22.9061E-3
66.9291E-3	4.28783E-12	66.6315E-3	66.9291E-3	97.9132E-3	39.9777E-12	-1.06093E+0	29.5114E-3
55.1181E-3	3.52464E-12	54.8533E-3	55.1181E-3	-116.364E-3	40.0376E-12	-1.12404E+0	24.7309E-3
43.3071E-3	2.73893E-12	43.0304E-3	43.3071E-3	64.3237E-3	39.9334E-12	-1.07590E+0	27.4309E-3
31.4961E-3	2.01871E-12	31.2074E-3	31.4961E-3	39.6440E-3	40.0345E-12	-1.07916E+0	25.8532E-3
19.6850E-3	1.20855E-12	19.4119E-3	19.6850E-3	-78.7687E-3	40.0211E-12	-1.12346E+0	24.3418E-3
7.87402E-3	449.329E-15	7.56272E-3	7.87402E-3	157.403E-3	40.0635E-12	-1.06703E+0	23.0202E-3
-3.93701E-3	-346.599E-15	-4.32676E-3	-3.93701E-3	-190.719E-3	40.0117E-12	-1.17875E+0	28.0772E-3
-15.7480E-3	-1.12964E-12	-16.1166E-3	-15.7480E-3	75.8285E-3	40.0188E-12	-1.11997E+0	25.7918E-3
-27.5591E-3	-1.89676E-12	-27.9298E-3	-27.5591E-3	35.8578E-3	40.0441E-12	-1.13035E+0	24.4320E-3
-39.3701E-3	-2.61127E-12	-39.6986E-3	-39.3701E-3	-59.4217E-3	39.9725E-12	-1.17660E+0	27.6080E-3
-51.1811E-3	-3.28661E-12	-51.5464E-3	-51.1811E-3	26.9890E-3	39.9921E-12	-1.17338E+0	29.9055E-3
-62.9921E-3	-4.04940E-12	-63.3195E-3	-62.9921E-3	52.7826E-3	40.0624E-12	-1.16800E+0	26.7428E-3
-74.8032E-3	-4.58377E-12	-75.1554E-3	-74.8032E-3	165.750E-6	40.0403E-12	-1.17289E+0	23.1417E-3
-86.6142E-3	-4.83250E-12	-87.0086E-3	-86.6142E-3	30.4024E-3	39.9900E-12	-1.17377E+0	27.4020E-3
-98.4252E-3	-5.04125E-12	-98.7851E-3	-98.4252E-3	-175.989E-3	40.0099E-12	-1.25742E+0	26.3880E-3
-110.236E-3	-5.45741E-12	-110.636E-3	-110.236E-3	191.862E-3	40.0234E-12	-1.14751E+0	26.1558E-3
-122.047E-3	-5.69928E-12	-122.390E-3	-122.047E-3	4.55451E-3	40.0185E-12	-1.20890E+0	27.7213E-3
-133.858E-3	-6.06478E-12	-134.245E-3	-133.858E-3	-39.2284E-3	39.9222E-12	-1.21848E+0	28.4631E-3
-145.669E-3	-6.39668E-12	-146.042E-3	-145.669E-3	-97.3143E-3	40.0196E-12	-1.25917E+0	27.2977E-3
-157.480E-3	-6.66114E-12	-157.818E-3	-157.480E-3	-26.6666E-3	39.9278E-12	-1.26094E+0	29.5146E-3
-169.291E-3	-7.15238E-12	-169.679E-3	-169.291E-3	12.7414E-3	40.0123E-12	-1.24346E+0	26.4754E-3
-181.102E-3	-7.57975E-12	-181.420E-3	-181.102E-3	-10.6829E-3	40.0008E-12	-1.25340E+0	29.9039E-3
-192.913E-3	-7.92530E-12	-193.237E-3	-192.913E-3	-70.7498E-3	40.0334E-12	-1.28198E+0	25.3181E-3
-204.724E-3	-8.26696E-12	-205.065E-3	-204.724E-3	9.73240E-3	39.9860E-12	-1.25535E+0	26.1854E-3
-216.535E-3	-8.66106E-12	-216.872E-3	-216.535E-3	182.584E-3	39.9318E-12	-1.18010E+0	27.5312E-3
-228.346E-3	-9.04207E-12	-228.688E-3	-228.346E-3	-88.0758E-3	40.0313E-12	-1.26239E+0	24.8734E-3
-240.157E-3	-9.45214E-12	-240.490E-3	-240.157E-3	30.3840E-3	39.9799E-12	-1.24171E+0	25.0108E-3
-251.969E-3	-9.82311E-12	-252.311E-3	-251.969E-3	-31.2052E-3	40.0128E-12	-1.27525E+0	24.4598E-3
-263.780E-3	-10.3922E-12	-264.088E-3	-263.780E-3	-54.7135E-3	40.0219E-12	-1.30921E+0	25.8893E-3
-275.591E-3	-10.8394E-12	-275.885E-3	-275.591E-3	-103.981E-3	39.9772E-12	-1.32308E+0	27.8320E-3
-287.402E-3	-11.3648E-12	-287.718E-3	-287.402E-3	2.06864E-3	40.0223E-12	-1.31410E+0	23.2296E-3
-299.213E-3	-11.7429E-12	-299.516E-3	-299.213E-3	44.8013E-3	40.0264E-12	-1.32462E+0	25.7386E-3
-311.024E-3	-12.2587E-12	-311.353E-3	-311.024E-3	-3.89043E-3	39.9580E-12	-1.34798E+0	27.4249E-3
-322.835E-3	-12.6880E-12	-323.149E-3	-322.835E-3	-42.8245E-3	40.0030E-12	-1.36332E+0	26.7447E-3
-334.646E-3	-13.1041E-12	-334.925E-3	-334.646E-3	43.9479E-3	40.0369E-12	-1.32944E+0	26.7961E-3
-346.457E-3	-13.4323E-12	-346.737E-3	-346.457E-3	-90.8298E-3	39.9832E-12	-1.40073E+0	28.2100E-3
-358.268E-3	-13.8383E-12	-358.574E-3	-358.268E-3	-82.8856E-6	39.9429E-12	-1.38561E+0	26.6672E-3
-370.079E-3	-14.3163E-12	-370.372E-3	-370.079E-3	15.4600E-3	40.0234E-12	-1.39381E+0	24.5191E-3
-381.890E-3	-14.6760E-12	-382.140E-3	-381.890E-3	-387.237E-6	39.9849E-12	-1.42113E+0	28.0104E-3
-393.701E-3	-15.2720E-12	-394.014E-3	-393.701E-3	-11.9550E-3	39.9023E-12	-1.41915E+0	32.2723E-3
-405.512E-3	-15.7808E-12	-405.837E-3	-405.512E-3	-155.602E-3	40.0970E-12	-1.49427E+0	26.2898E-3
-417.323E-3	-16.2278E-12	-417.625E-3	-417.323E-3	-9.49769E-3	39.9934E-12	-1.47744E+0	25.9201E-3
-429.134E-3	-16.7286E-12	-429.426E-3	-429.134E-3	150.941E-3	40.0124E-12	-1.43381E+0	25.0749E-3
-440.945E-3	-17.4367E-12	-441.230E-3	-440.945E-3	-231.723E-3	40.0744E-12	-1.56405E+0	24.9133E-3
-452.756E-3	-17.8380E-12	-453.029E-3	-452.756E-3	23.9432E-3	39.9442E-12	-1.52804E+0	28.1434E-3
-464.567E-3	-18.4843E-12	-464.850E-3	-464.567E-3	23.3356E-3	40.0167E-12	-1.51612E+0	24.5078E-3
-476.378E-3	-19.2322E-12	-476.676E-3	-476.378E-3	34.9002E-3	40.0529E-12	-1.51176E+0	25.8245E-3
-488.189E-3	-19.3589E-12	-488.415E-3	-488.189E-3	-49.7027E-3	40.0250E-12	-1.53726E+0	24.7631E-3
-500.000E-3	-19.5971E-12	-500.253E-3	-500.000E-3	-68.3284E-3	39.9997E-12	-1.56659E+0	26.3862E-3
