Experiment	bias spectroscopy	
Date	01.12.2015 02:59:54	
User		
X (m)	281.363E-9	
Y (m)	-139.473E-9	
Z (m)	-4.07703E-9	
Z offset (m)	0E+0	
Settling time (s)	30E-3	
Integration time (s)	200E-3	
Z-Ctrl hold	TRUE	
Final Z (m)	-4.07703E-9	
Filter type	None	
Order		
Cutoff frq		
Current (A)	15.6778E-12	
Z (m)	-4.07703E-9	
Phase (deg)	249.634E-3	
Amplitude (m)	40.2533E-12	
Frequency Shift (Hz)	-1.07812E+0	
Excitation (V)	25.3091E-3	

[DATA]
Bias calc (V)	Current (A)	Applied Voltage measured (V)	Bias (V)	Phase (deg)	Amplitude (m)	Frequency Shift (Hz)	Excitation (V)
1.00000E+0	15.2597E-12	999.330E-3	1.00000E+0	160.343E-3	39.9959E-12	-1.08148E+0	26.2936E-3
988.189E-3	14.9468E-12	987.530E-3	988.189E-3	52.7895E-3	39.9967E-12	-1.08015E+0	24.8793E-3
976.378E-3	14.7681E-12	975.768E-3	976.378E-3	-32.0624E-3	40.0045E-12	-1.11470E+0	26.0775E-3
964.567E-3	14.6419E-12	963.902E-3	964.567E-3	92.1877E-3	39.9113E-12	-1.08299E+0	28.5379E-3
952.756E-3	14.5075E-12	952.139E-3	952.756E-3	-29.9125E-3	40.0015E-12	-1.13644E+0	27.8683E-3
940.945E-3	14.3712E-12	940.302E-3	940.945E-3	97.1115E-3	39.9581E-12	-1.08858E+0	26.9151E-3
929.134E-3	14.2838E-12	928.492E-3	929.134E-3	-623.765E-6	40.0339E-12	-1.09039E+0	24.8792E-3
917.323E-3	14.1536E-12	916.740E-3	917.323E-3	-70.6672E-3	40.0042E-12	-1.12380E+0	25.2224E-3
905.512E-3	14.0632E-12	904.888E-3	905.512E-3	-13.2211E-3	40.0438E-12	-1.12174E+0	22.1533E-3
893.701E-3	13.8805E-12	893.130E-3	893.701E-3	-24.0491E-3	39.9620E-12	-1.11230E+0	28.0359E-3
881.890E-3	13.7523E-12	881.288E-3	881.890E-3	16.6781E-3	40.0052E-12	-1.11165E+0	24.5740E-3
870.079E-3	13.5264E-12	869.485E-3	870.079E-3	35.3540E-3	39.9498E-12	-1.06854E+0	26.6596E-3
858.268E-3	13.3652E-12	857.667E-3	858.268E-3	158.089E-3	39.8761E-12	-1.03063E+0	29.6734E-3
846.457E-3	13.3738E-12	845.837E-3	846.457E-3	-128.922E-3	40.1288E-12	-1.10776E+0	24.7660E-3
834.646E-3	13.1239E-12	834.060E-3	834.646E-3	162.421E-3	39.9752E-12	-1.01266E+0	28.6326E-3
822.835E-3	12.9687E-12	822.249E-3	822.835E-3	-123.287E-3	39.9683E-12	-1.09448E+0	25.5784E-3
811.024E-3	12.8909E-12	810.429E-3	811.024E-3	-13.0401E-3	40.0574E-12	-1.07315E+0	25.3287E-3
799.213E-3	12.6493E-12	798.657E-3	799.213E-3	134.398E-3	39.9848E-12	-1.03424E+0	27.9195E-3
787.402E-3	12.5344E-12	786.822E-3	787.402E-3	-48.8983E-3	39.9284E-12	-1.08193E+0	29.2628E-3
775.591E-3	12.4315E-12	775.027E-3	775.591E-3	735.753E-6	40.0163E-12	-1.06716E+0	27.0438E-3
763.780E-3	12.2987E-12	763.210E-3	763.780E-3	-2.24110E-3	40.0961E-12	-1.06194E+0	23.3460E-3
751.969E-3	12.1425E-12	751.438E-3	751.969E-3	20.1507E-3	39.9909E-12	-1.04564E+0	25.2238E-3
740.157E-3	12.1478E-12	739.631E-3	740.157E-3	92.1025E-3	40.0178E-12	-994.638E-3	23.3619E-3
728.346E-3	11.8596E-12	727.789E-3	728.346E-3	7.73089E-3	39.9232E-12	-1.03211E+0	27.8743E-3
716.535E-3	11.8345E-12	715.997E-3	716.535E-3	85.7849E-3	40.1262E-12	-998.469E-3	24.9363E-3
704.724E-3	11.5848E-12	704.309E-3	704.724E-3	-102.684E-3	39.9397E-12	-1.05172E+0	26.6079E-3
692.913E-3	11.4488E-12	692.505E-3	692.913E-3	-88.8501E-3	39.9592E-12	-1.05428E+0	24.3524E-3
681.102E-3	11.4877E-12	680.727E-3	681.102E-3	-3.75198E-3	39.9943E-12	-1.03510E+0	27.1773E-3
669.291E-3	11.1904E-12	668.914E-3	669.291E-3	-65.9280E-3	40.0006E-12	-1.02732E+0	25.7666E-3
657.480E-3	11.0552E-12	657.074E-3	657.480E-3	1.67660E-3	39.8776E-12	-1.01285E+0	25.9298E-3
645.669E-3	10.9328E-12	645.276E-3	645.669E-3	91.6673E-3	40.0813E-12	-983.126E-3	28.0383E-3
633.858E-3	10.7713E-12	633.469E-3	633.858E-3	4.35209E-3	40.0081E-12	-988.767E-3	26.5411E-3
622.047E-3	10.6721E-12	621.661E-3	622.047E-3	-791.923E-9	40.0889E-12	-1.00192E+0	23.5633E-3
610.236E-3	10.5229E-12	609.903E-3	610.236E-3	-29.1471E-3	39.9901E-12	-1.01183E+0	25.6289E-3
598.425E-3	10.1740E-12	598.090E-3	598.425E-3	-21.1008E-3	40.0231E-12	-1.00638E+0	23.1084E-3
586.614E-3	10.2008E-12	586.276E-3	586.614E-3	-139.036E-3	40.0439E-12	-1.06166E+0	23.1831E-3
574.803E-3	10.0033E-12	574.461E-3	574.803E-3	84.7745E-3	39.9812E-12	-991.799E-3	26.4378E-3
562.992E-3	9.83986E-12	562.674E-3	562.992E-3	6.08997E-3	39.9809E-12	-985.949E-3	26.2908E-3
551.181E-3	9.75714E-12	550.864E-3	551.181E-3	-5.68490E-3	40.0587E-12	-1.00221E+0	23.9214E-3
539.370E-3	9.56573E-12	538.996E-3	539.370E-3	-15.4844E-3	40.0447E-12	-996.553E-3	24.9738E-3
527.559E-3	9.18562E-12	527.210E-3	527.559E-3	103.716E-3	39.9052E-12	-953.866E-3	29.5496E-3
515.748E-3	9.07555E-12	515.376E-3	515.748E-3	-92.2858E-3	40.0388E-12	-1.00677E+0	26.7312E-3
503.937E-3	8.97543E-12	503.585E-3	503.937E-3	1.80933E-3	39.9699E-12	-991.152E-3	27.1172E-3
492.126E-3	8.78764E-12	491.760E-3	492.126E-3	7.73022E-3	39.9855E-12	-996.094E-3	26.9304E-3
480.315E-3	8.56736E-12	479.952E-3	480.315E-3	-1.00444E-3	40.0501E-12	-989.492E-3	24.6557E-3
468.504E-3	8.45616E-12	468.159E-3	468.504E-3	36.4661E-3	39.9166E-12	-989.874E-3	24.9190E-3
456.693E-3	8.26438E-12	456.346E-3	456.693E-3	-128.015E-3	39.9760E-12	-1.04362E+0	26.4646E-3
444.882E-3	8.14522E-12	444.575E-3	444.882E-3	15.2883E-3	40.0842E-12	-998.391E-3	25.1945E-3
433.071E-3	7.88043E-12	432.749E-3	433.071E-3	39.4729E-3	39.9797E-12	-989.818E-3	26.4398E-3
421.260E-3	7.71232E-12	420.935E-3	421.260E-3	-82.1517E-3	40.0417E-12	-1.03208E+0	24.9047E-3
409.449E-3	7.42120E-12	409.157E-3	409.449E-3	65.7300E-3	39.9842E-12	-996.106E-3	26.4948E-3
397.638E-3	7.34857E-12	397.308E-3	397.638E-3	-38.4265E-3	39.9722E-12	-1.01584E+0	29.2797E-3
385.827E-3	7.13227E-12	385.547E-3	385.827E-3	101.084E-3	39.9898E-12	-985.570E-3	26.8509E-3
374.016E-3	6.88324E-12	373.709E-3	374.016E-3	-26.2423E-3	39.9665E-12	-1.03532E+0	25.8614E-3
362.205E-3	6.67445E-12	361.915E-3	362.205E-3	-6.60564E-3	40.0234E-12	-1.01785E+0	26.7905E-3
350.394E-3	6.57357E-12	350.162E-3	350.394E-3	-80.6997E-3	40.0594E-12	-1.03254E+0	23.5052E-3
338.583E-3	6.30900E-12	338.311E-3	338.583E-3	-128.216E-3	39.9703E-12	-1.06437E+0	26.2974E-3
326.772E-3	6.15136E-12	326.527E-3	326.772E-3	10.4397E-3	39.9943E-12	-1.05568E+0	25.3746E-3
314.961E-3	5.93172E-12	314.683E-3	314.961E-3	12.3600E-3	39.9782E-12	-1.01673E+0	24.4898E-3
303.150E-3	5.65827E-12	302.863E-3	303.150E-3	-90.8024E-3	39.9575E-12	-1.07274E+0	27.0325E-3
291.339E-3	5.55554E-12	291.117E-3	291.339E-3	22.6320E-3	40.0277E-12	-1.03344E+0	25.0786E-3
279.528E-3	5.35077E-12	279.290E-3	279.528E-3	10.4323E-3	39.9826E-12	-1.05095E+0	26.8815E-3
267.717E-3	5.05534E-12	267.476E-3	267.717E-3	103.243E-3	39.9975E-12	-1.00305E+0	26.2853E-3
255.906E-3	4.89144E-12	255.650E-3	255.906E-3	66.2025E-3	39.9628E-12	-1.00511E+0	25.9425E-3
244.094E-3	4.66055E-12	243.874E-3	244.094E-3	80.7835E-3	39.9954E-12	-1.00573E+0	29.4000E-3
232.283E-3	4.44588E-12	232.024E-3	232.283E-3	-155.408E-3	40.0363E-12	-1.08127E+0	23.4532E-3
220.472E-3	4.22452E-12	220.194E-3	220.472E-3	100.175E-3	39.9815E-12	-1.01544E+0	27.0319E-3
208.661E-3	3.95103E-12	208.416E-3	208.661E-3	75.0267E-3	39.9645E-12	-1.02405E+0	27.1162E-3
196.850E-3	3.74945E-12	196.584E-3	196.850E-3	-99.5262E-3	39.9784E-12	-1.07894E+0	28.6512E-3
185.039E-3	3.51662E-12	184.807E-3	185.039E-3	-49.6646E-3	39.9975E-12	-1.07258E+0	28.5024E-3
173.228E-3	3.35262E-12	172.995E-3	173.228E-3	55.5129E-3	39.9276E-12	-1.05392E+0	29.0130E-3
161.417E-3	3.11999E-12	161.159E-3	161.417E-3	24.4994E-3	40.0864E-12	-1.05598E+0	25.3702E-3
149.606E-3	2.84352E-12	149.332E-3	149.606E-3	23.4447E-3	39.9396E-12	-1.07492E+0	29.0953E-3
137.795E-3	2.63189E-12	137.543E-3	137.795E-3	102.929E-3	39.9798E-12	-1.04101E+0	26.4909E-3
125.984E-3	2.39979E-12	125.770E-3	125.984E-3	-229.081E-3	40.0053E-12	-1.13973E+0	26.1688E-3
114.173E-3	2.16744E-12	113.938E-3	114.173E-3	75.0383E-3	40.0082E-12	-1.08784E+0	26.7244E-3
102.362E-3	1.95846E-12	102.136E-3	102.362E-3	5.41677E-3	40.0151E-12	-1.10256E+0	27.7722E-3
90.5512E-3	1.69699E-12	90.3260E-3	90.5512E-3	-24.1809E-3	39.9758E-12	-1.08975E+0	25.7927E-3
78.7402E-3	1.46467E-12	78.4931E-3	78.7402E-3	-48.4575E-3	40.0162E-12	-1.11747E+0	26.4874E-3
66.9291E-3	1.23050E-12	66.6218E-3	66.9291E-3	-115.410E-3	39.9818E-12	-1.13016E+0	27.1649E-3
55.1181E-3	972.447E-15	54.8490E-3	55.1181E-3	-131.948E-3	39.9860E-12	-1.15507E+0	27.2136E-3
43.3071E-3	771.078E-15	43.0246E-3	43.3071E-3	-10.5966E-3	40.0035E-12	-1.11364E+0	24.6321E-3
31.4961E-3	527.755E-15	31.1998E-3	31.4961E-3	-55.5423E-3	39.9702E-12	-1.13605E+0	25.5834E-3
19.6850E-3	288.532E-15	19.4146E-3	19.6850E-3	49.5790E-3	40.0903E-12	-1.12844E+0	23.4328E-3
7.87402E-3	40.5668E-15	7.56038E-3	7.87402E-3	-87.3467E-3	39.9888E-12	-1.17516E+0	26.5924E-3
-3.93701E-3	-206.367E-15	-4.33156E-3	-3.93701E-3	43.9589E-3	39.9819E-12	-1.14511E+0	25.4241E-3
-15.7480E-3	-455.890E-15	-16.1166E-3	-15.7480E-3	-52.1532E-3	39.9950E-12	-1.16840E+0	26.0491E-3
-27.5591E-3	-708.628E-15	-27.9320E-3	-27.5591E-3	3.52948E-3	40.0661E-12	-1.14859E+0	24.9322E-3
-39.3701E-3	-982.788E-15	-39.7052E-3	-39.3701E-3	-79.6051E-3	39.9606E-12	-1.19258E+0	28.2078E-3
-51.1811E-3	-1.25721E-12	-51.5528E-3	-51.1811E-3	-77.6641E-3	39.9800E-12	-1.20197E+0	26.6153E-3
-62.9921E-3	-1.50916E-12	-63.3161E-3	-62.9921E-3	-37.6552E-3	40.0065E-12	-1.21854E+0	25.8172E-3
-74.8032E-3	-1.72851E-12	-75.1529E-3	-74.8032E-3	-33.0585E-3	40.0441E-12	-1.20792E+0	25.5023E-3
-86.6142E-3	-1.86770E-12	-87.0136E-3	-86.6142E-3	132.627E-3	40.0257E-12	-1.16495E+0	25.2241E-3
-98.4252E-3	-1.98969E-12	-98.7887E-3	-98.4252E-3	-51.0816E-3	40.0650E-12	-1.24269E+0	25.6697E-3
-110.236E-3	-2.08498E-12	-110.640E-3	-110.236E-3	-22.4017E-3	39.9573E-12	-1.23418E+0	25.0725E-3
-122.047E-3	-2.20554E-12	-122.384E-3	-122.047E-3	13.7801E-3	40.0177E-12	-1.22071E+0	27.0786E-3
-133.858E-3	-2.34533E-12	-134.240E-3	-133.858E-3	-74.5642E-3	40.0246E-12	-1.24855E+0	24.4064E-3
-145.669E-3	-2.47952E-12	-146.030E-3	-145.669E-3	-81.0161E-3	39.9660E-12	-1.27405E+0	26.9061E-3
-157.480E-3	-2.59180E-12	-157.815E-3	-157.480E-3	-83.9381E-3	39.9880E-12	-1.28787E+0	25.6788E-3
-169.291E-3	-2.74284E-12	-169.682E-3	-169.291E-3	19.9431E-3	40.0257E-12	-1.26379E+0	26.1489E-3
-181.102E-3	-2.88956E-12	-181.425E-3	-181.102E-3	-26.5456E-3	39.9276E-12	-1.27852E+0	28.2829E-3
-192.913E-3	-2.99398E-12	-193.239E-3	-192.913E-3	-54.5211E-3	39.9982E-12	-1.29607E+0	25.7221E-3
-204.724E-3	-3.10520E-12	-205.063E-3	-204.724E-3	-128.854E-3	40.0374E-12	-1.32881E+0	25.5979E-3
-216.535E-3	-3.23949E-12	-216.869E-3	-216.535E-3	5.12561E-3	39.9635E-12	-1.33791E+0	26.5134E-3
-228.346E-3	-3.37098E-12	-228.681E-3	-228.346E-3	176.845E-3	40.0131E-12	-1.24861E+0	28.7260E-3
-240.157E-3	-3.40515E-12	-240.483E-3	-240.157E-3	-214.252E-3	40.0061E-12	-1.37222E+0	24.5555E-3
-251.969E-3	-3.60433E-12	-252.306E-3	-251.969E-3	-106.861E-3	40.0307E-12	-1.38728E+0	25.5871E-3
-263.780E-3	-3.76498E-12	-264.076E-3	-263.780E-3	132.280E-3	40.0862E-12	-1.32664E+0	21.1987E-3
-275.591E-3	-3.89014E-12	-275.872E-3	-275.591E-3	-72.6133E-3	39.8937E-12	-1.36802E+0	27.5610E-3
-287.402E-3	-4.10979E-12	-287.723E-3	-287.402E-3	5.83065E-3	40.0081E-12	-1.37518E+0	25.9917E-3
-299.213E-3	-4.27074E-12	-299.508E-3	-299.213E-3	128.096E-3	39.9851E-12	-1.32687E+0	27.0167E-3
-311.024E-3	-4.49956E-12	-311.339E-3	-311.024E-3	8.95443E-3	40.0675E-12	-1.34935E+0	25.9925E-3
-322.835E-3	-4.66373E-12	-323.125E-3	-322.835E-3	-88.8390E-3	40.0697E-12	-1.42719E+0	24.9632E-3
-334.646E-3	-4.82022E-12	-334.899E-3	-334.646E-3	-127.951E-3	40.0015E-12	-1.46085E+0	26.3577E-3
-346.457E-3	-4.96957E-12	-346.726E-3	-346.457E-3	-88.1441E-3	39.9219E-12	-1.47708E+0	27.8251E-3
-358.268E-3	-5.13551E-12	-358.575E-3	-358.268E-3	-90.6518E-3	39.9874E-12	-1.47637E+0	26.6055E-3
-370.079E-3	-5.30374E-12	-370.377E-3	-370.079E-3	-125.625E-3	40.0208E-12	-1.51879E+0	25.6875E-3
-381.890E-3	-5.41978E-12	-382.143E-3	-381.890E-3	161.029E-3	40.0543E-12	-1.42908E+0	22.6330E-3
-393.701E-3	-5.49429E-12	-394.012E-3	-393.701E-3	-45.4317E-3	39.9489E-12	-1.49121E+0	26.6045E-3
-405.512E-3	-5.63530E-12	-405.819E-3	-405.512E-3	3.05789E-3	39.9411E-12	-1.46243E+0	27.0644E-3
-417.323E-3	-5.81374E-12	-417.614E-3	-417.323E-3	17.8218E-3	40.0237E-12	-1.48637E+0	25.1143E-3
-429.134E-3	-6.04910E-12	-429.424E-3	-429.134E-3	-197.289E-3	39.9929E-12	-1.56789E+0	26.2987E-3
-440.945E-3	-6.20675E-12	-441.225E-3	-440.945E-3	-9.56572E-3	39.9857E-12	-1.53104E+0	27.4446E-3
-452.756E-3	-6.47173E-12	-453.032E-3	-452.756E-3	-44.0945E-3	39.9827E-12	-1.53032E+0	28.2856E-3
-464.567E-3	-6.71965E-12	-464.854E-3	-464.567E-3	-102.601E-3	39.9616E-12	-1.57707E+0	26.0290E-3
-476.378E-3	-6.97177E-12	-476.677E-3	-476.378E-3	114.800E-3	40.0050E-12	-1.51563E+0	27.2464E-3
-488.189E-3	-7.22117E-12	-488.402E-3	-488.189E-3	-92.8261E-3	39.9827E-12	-1.54873E+0	26.1338E-3
-500.000E-3	-7.44726E-12	-500.243E-3	-500.000E-3	-288.682E-3	40.0597E-12	-1.67454E+0	25.9594E-3
