Experiment	bias spectroscopy	
Date	30.11.2015 21:02:09	
User		
X (m)	29.0793E-9	
Y (m)	-165.819E-9	
Z (m)	-3.75578E-9	
Z offset (m)	0E+0	
Settling time (s)	30E-3	
Integration time (s)	200E-3	
Z-Ctrl hold	TRUE	
Final Z (m)	-3.75578E-9	
Filter type	None	
Order		
Cutoff frq		
Current (A)	146.383E-12	
Z (m)	-3.75578E-9	
Phase (deg)	736.54E-3	
Amplitude (m)	40.0805E-12	
Frequency Shift (Hz)	-274.509E-3	
Excitation (V)	24.6141E-3	

[DATA]
Bias calc (V)	Current (A)	Applied Voltage measured (V)	Bias (V)	Phase (deg)	Amplitude (m)	Frequency Shift (Hz)	Excitation (V)
1.00000E+0	146.063E-12	999.349E-3	1.00000E+0	260.639E-3	39.9281E-12	-362.222E-3	20.8394E-3
988.189E-3	144.706E-12	987.550E-3	988.189E-3	-16.4627E-3	39.9162E-12	-464.784E-3	19.9937E-3
976.378E-3	143.007E-12	975.783E-3	976.378E-3	79.9203E-3	40.0052E-12	-391.331E-3	19.8867E-3
964.567E-3	141.214E-12	963.920E-3	964.567E-3	-230.438E-3	40.0389E-12	-486.402E-3	17.7438E-3
952.756E-3	139.639E-12	952.176E-3	952.756E-3	130.428E-3	39.9729E-12	-409.647E-3	20.6394E-3
940.945E-3	138.234E-12	940.330E-3	940.945E-3	-291.966E-3	40.0397E-12	-557.341E-3	15.1082E-3
929.134E-3	136.924E-12	928.514E-3	929.134E-3	87.2069E-3	40.0258E-12	-498.933E-3	19.4581E-3
917.323E-3	135.299E-12	916.758E-3	917.323E-3	-77.4410E-3	39.9779E-12	-508.957E-3	19.1199E-3
905.512E-3	133.884E-12	904.896E-3	905.512E-3	72.9872E-3	40.0123E-12	-434.029E-3	21.3807E-3
893.701E-3	132.806E-12	893.148E-3	893.701E-3	192.515E-3	40.0382E-12	-380.402E-3	21.5962E-3
881.890E-3	130.727E-12	881.297E-3	881.890E-3	-224.401E-3	39.9953E-12	-512.358E-3	19.6299E-3
870.079E-3	129.153E-12	869.499E-3	870.079E-3	-22.3743E-3	39.9067E-12	-437.741E-3	20.7076E-3
858.268E-3	128.321E-12	857.672E-3	858.268E-3	-21.7688E-3	39.9640E-12	-455.034E-3	20.6993E-3
846.457E-3	126.908E-12	845.845E-3	846.457E-3	360.457E-3	39.9501E-12	-402.003E-3	20.3887E-3
834.646E-3	125.833E-12	834.068E-3	834.646E-3	-79.7343E-3	40.0271E-12	-480.353E-3	23.5713E-3
822.835E-3	124.611E-12	822.259E-3	822.835E-3	166.504E-3	39.8700E-12	-377.308E-3	22.6382E-3
811.024E-3	123.652E-12	810.427E-3	811.024E-3	-197.963E-3	40.1080E-12	-492.077E-3	19.5510E-3
799.213E-3	122.246E-12	798.656E-3	799.213E-3	2.60230E-3	40.0581E-12	-439.593E-3	21.3839E-3
787.402E-3	120.650E-12	786.826E-3	787.402E-3	453.985E-3	39.9395E-12	-292.207E-3	23.1054E-3
775.591E-3	119.514E-12	775.039E-3	775.591E-3	-289.753E-3	40.0398E-12	-521.208E-3	17.5499E-3
763.780E-3	118.533E-12	763.203E-3	763.780E-3	-32.1305E-3	40.0564E-12	-477.071E-3	18.2674E-3
751.969E-3	116.396E-12	751.426E-3	751.969E-3	-156.641E-3	39.9676E-12	-548.542E-3	20.2901E-3
740.157E-3	115.050E-12	739.624E-3	740.157E-3	338.157E-3	39.9235E-12	-379.189E-3	23.0415E-3
728.346E-3	114.552E-12	727.790E-3	728.346E-3	2.74467E-3	40.1229E-12	-477.200E-3	20.3196E-3
716.535E-3	113.042E-12	716.002E-3	716.535E-3	357.217E-3	39.9292E-12	-363.587E-3	21.0751E-3
704.724E-3	111.646E-12	704.311E-3	704.724E-3	216.815E-3	40.0070E-12	-377.411E-3	23.3533E-3
692.913E-3	110.900E-12	692.517E-3	692.913E-3	-114.836E-3	40.0415E-12	-456.389E-3	18.8784E-3
681.102E-3	109.173E-12	680.737E-3	681.102E-3	78.8307E-3	40.0332E-12	-442.927E-3	20.6007E-3
669.291E-3	107.917E-12	668.920E-3	669.291E-3	-130.939E-3	39.9205E-12	-452.453E-3	21.6733E-3
657.480E-3	107.278E-12	657.078E-3	657.480E-3	-133.295E-3	40.1590E-12	-452.102E-3	20.4500E-3
645.669E-3	105.054E-12	645.275E-3	645.669E-3	-31.5137E-3	39.9149E-12	-450.586E-3	19.5064E-3
633.858E-3	103.749E-12	633.465E-3	633.858E-3	-132.646E-3	40.0237E-12	-466.621E-3	21.7670E-3
622.047E-3	102.603E-12	621.667E-3	622.047E-3	45.4776E-3	39.9663E-12	-448.211E-3	22.3047E-3
610.236E-3	101.311E-12	609.899E-3	610.236E-3	76.3395E-3	39.9640E-12	-403.354E-3	24.3570E-3
598.425E-3	100.742E-12	598.088E-3	598.425E-3	-79.4512E-3	40.1270E-12	-434.896E-3	22.3485E-3
586.614E-3	99.1336E-12	586.282E-3	586.614E-3	-17.2436E-3	40.0993E-12	-456.010E-3	21.3528E-3
574.803E-3	97.2410E-12	574.466E-3	574.803E-3	-191.115E-3	39.9774E-12	-534.590E-3	18.9099E-3
562.992E-3	95.7996E-12	562.683E-3	562.992E-3	330.954E-6	39.9337E-12	-524.398E-3	21.2343E-3
551.181E-3	94.9010E-12	550.868E-3	551.181E-3	-69.2694E-3	39.9257E-12	-554.840E-3	23.1790E-3
539.370E-3	93.1597E-12	538.996E-3	539.370E-3	465.068E-3	39.8328E-12	-346.115E-3	26.7519E-3
527.559E-3	92.4732E-12	527.218E-3	527.559E-3	-9.60291E-3	39.9970E-12	-434.835E-3	24.2643E-3
515.748E-3	91.2232E-12	515.382E-3	515.748E-3	-255.675E-3	40.1185E-12	-560.418E-3	17.3044E-3
503.937E-3	89.8043E-12	503.605E-3	503.937E-3	198.849E-3	40.0069E-12	-430.159E-3	21.0747E-3
492.126E-3	88.0610E-12	491.776E-3	492.126E-3	-209.469E-3	39.9778E-12	-546.062E-3	24.6250E-3
480.315E-3	86.6952E-12	479.971E-3	480.315E-3	-105.279E-3	39.9642E-12	-508.749E-3	21.4173E-3
468.504E-3	85.4608E-12	468.175E-3	468.504E-3	290.637E-3	39.9973E-12	-377.334E-3	21.6264E-3
456.693E-3	84.0353E-12	456.357E-3	456.693E-3	54.5114E-3	40.0371E-12	-446.380E-3	22.1990E-3
444.882E-3	82.4157E-12	444.590E-3	444.882E-3	213.936E-3	39.9311E-12	-382.994E-3	27.4124E-3
433.071E-3	81.1185E-12	432.754E-3	433.071E-3	-69.2858E-3	39.9930E-12	-478.166E-3	22.8044E-3
421.260E-3	79.5791E-12	420.941E-3	421.260E-3	38.6304E-3	40.0553E-12	-460.829E-3	22.9194E-3
409.449E-3	77.9781E-12	409.161E-3	409.449E-3	17.3915E-3	39.9755E-12	-474.205E-3	27.3288E-3
397.638E-3	76.2922E-12	397.323E-3	397.638E-3	-124.502E-3	39.9934E-12	-534.090E-3	21.9594E-3
385.827E-3	75.0559E-12	385.569E-3	385.827E-3	921.195E-6	39.9715E-12	-514.084E-3	23.9212E-3
374.016E-3	73.1297E-12	373.727E-3	374.016E-3	-42.2804E-3	39.9790E-12	-520.279E-3	24.1403E-3
362.205E-3	71.5625E-12	361.925E-3	362.205E-3	-49.6994E-3	40.0076E-12	-529.614E-3	23.1598E-3
350.394E-3	69.6748E-12	350.179E-3	350.394E-3	-38.0630E-3	39.9002E-12	-556.004E-3	26.1719E-3
338.583E-3	68.3011E-12	338.312E-3	338.583E-3	205.120E-3	40.0622E-12	-470.608E-3	23.5723E-3
326.772E-3	66.4016E-12	326.519E-3	326.772E-3	-50.2721E-3	40.0353E-12	-532.344E-3	25.2223E-3
314.961E-3	65.2218E-12	314.687E-3	314.961E-3	-21.6207E-3	39.9596E-12	-550.155E-3	26.3307E-3
303.150E-3	63.4836E-12	302.856E-3	303.150E-3	76.4593E-3	40.0390E-12	-531.170E-3	22.0268E-3
291.339E-3	61.7057E-12	291.110E-3	291.339E-3	-192.679E-3	40.0053E-12	-609.873E-3	24.9520E-3
279.528E-3	58.9988E-12	279.281E-3	279.528E-3	112.527E-3	39.8897E-12	-569.024E-3	27.7873E-3
267.717E-3	57.8851E-12	267.467E-3	267.717E-3	88.8622E-3	40.1209E-12	-565.324E-3	22.0911E-3
255.906E-3	55.2951E-12	255.637E-3	255.906E-3	-68.2220E-3	39.8937E-12	-637.445E-3	28.0816E-3
244.094E-3	54.1137E-12	243.862E-3	244.094E-3	53.3916E-3	40.1273E-12	-606.406E-3	22.5167E-3
232.283E-3	51.9026E-12	232.015E-3	232.283E-3	98.9845E-3	40.0054E-12	-605.864E-3	27.0635E-3
220.472E-3	49.2828E-12	220.190E-3	220.472E-3	77.8801E-3	39.9467E-12	-593.398E-3	26.9058E-3
208.661E-3	47.5470E-12	208.410E-3	208.661E-3	-30.8341E-3	39.9819E-12	-617.489E-3	26.5997E-3
196.850E-3	45.0653E-12	196.576E-3	196.850E-3	-68.2092E-3	40.0064E-12	-644.162E-3	24.6034E-3
185.039E-3	42.5226E-12	184.808E-3	185.039E-3	-107.585E-3	39.9606E-12	-683.228E-3	25.8479E-3
173.228E-3	40.0341E-12	172.992E-3	173.228E-3	-14.6509E-3	40.0260E-12	-683.036E-3	24.4981E-3
161.417E-3	37.3299E-12	161.165E-3	161.417E-3	116.263E-3	40.0730E-12	-643.515E-3	22.8104E-3
149.606E-3	34.6563E-12	149.343E-3	149.606E-3	42.5708E-3	39.9635E-12	-648.135E-3	27.3743E-3
137.795E-3	31.7811E-12	137.543E-3	137.795E-3	-77.0498E-3	39.9412E-12	-694.652E-3	25.8574E-3
125.984E-3	29.4387E-12	125.785E-3	125.984E-3	-66.2734E-3	39.9907E-12	-737.038E-3	24.2758E-3
114.173E-3	26.9511E-12	113.945E-3	114.173E-3	-27.3340E-3	40.0329E-12	-721.944E-3	25.0931E-3
102.362E-3	23.8235E-12	102.145E-3	102.362E-3	-49.5691E-3	39.9780E-12	-747.387E-3	24.5172E-3
90.5512E-3	21.6339E-12	90.3459E-3	90.5512E-3	40.3693E-3	40.0495E-12	-731.848E-3	23.7832E-3
78.7402E-3	18.6278E-12	78.5016E-3	78.7402E-3	54.9236E-3	40.0140E-12	-743.542E-3	25.6513E-3
66.9291E-3	15.6617E-12	66.6348E-3	66.9291E-3	-18.2674E-3	40.0484E-12	-769.567E-3	23.8017E-3
55.1181E-3	12.9446E-12	54.8659E-3	55.1181E-3	-77.9308E-3	39.9596E-12	-811.307E-3	26.5502E-3
43.3071E-3	10.2297E-12	43.0359E-3	43.3071E-3	36.9083E-3	40.0829E-12	-782.534E-3	22.8578E-3
31.4961E-3	7.43243E-12	31.2078E-3	31.4961E-3	20.3336E-3	39.9919E-12	-792.818E-3	24.8605E-3
19.6850E-3	4.62462E-12	19.4140E-3	19.6850E-3	119.550E-3	39.9771E-12	-774.470E-3	26.6764E-3
7.87402E-3	1.86827E-12	7.56126E-3	7.87402E-3	-120.344E-3	39.9334E-12	-869.885E-3	29.0538E-3
-3.93701E-3	-831.439E-15	-4.32221E-3	-3.93701E-3	110.383E-3	39.9626E-12	-813.689E-3	27.8137E-3
-15.7480E-3	-3.57028E-12	-16.1142E-3	-15.7480E-3	-70.4854E-3	40.0059E-12	-879.381E-3	26.4257E-3
-27.5591E-3	-6.26749E-12	-27.9197E-3	-27.5591E-3	64.4668E-3	40.0270E-12	-864.134E-3	28.5303E-3
-39.3701E-3	-8.85479E-12	-39.6876E-3	-39.3701E-3	72.7866E-3	40.0777E-12	-859.754E-3	19.8401E-3
-51.1811E-3	-11.0880E-12	-51.5452E-3	-51.1811E-3	-76.6630E-3	39.9642E-12	-917.414E-3	27.4556E-3
-62.9921E-3	-13.2601E-12	-63.3170E-3	-62.9921E-3	43.2097E-3	39.9817E-12	-898.986E-3	26.6050E-3
-74.8032E-3	-14.9366E-12	-75.1471E-3	-74.8032E-3	-1.52593E-3	39.9918E-12	-899.956E-3	26.6174E-3
-86.6142E-3	-16.0501E-12	-87.0143E-3	-86.6142E-3	-163.224E-3	39.9643E-12	-969.272E-3	26.6699E-3
-98.4252E-3	-17.1655E-12	-98.7785E-3	-98.4252E-3	29.6008E-3	39.9617E-12	-960.756E-3	26.5020E-3
-110.236E-3	-18.3000E-12	-110.640E-3	-110.236E-3	129.912E-3	39.9749E-12	-894.488E-3	24.9931E-3
-122.047E-3	-19.3602E-12	-122.381E-3	-122.047E-3	-49.4145E-3	39.9706E-12	-962.493E-3	29.8141E-3
-133.858E-3	-20.2592E-12	-134.230E-3	-133.858E-3	-99.7747E-3	39.9508E-12	-1.00215E+0	29.4019E-3
-145.669E-3	-21.3631E-12	-146.032E-3	-145.669E-3	-81.8190E-3	39.9689E-12	-1.00684E+0	26.8264E-3
-157.480E-3	-22.4377E-12	-157.806E-3	-157.480E-3	98.9292E-3	40.0121E-12	-954.725E-3	28.6808E-3
-169.291E-3	-23.2027E-12	-169.668E-3	-169.291E-3	-211.375E-3	39.9482E-12	-1.05801E+0	31.3929E-3
-181.102E-3	-24.1080E-12	-181.412E-3	-181.102E-3	109.159E-3	40.0636E-12	-986.506E-3	27.8093E-3
-192.913E-3	-25.2309E-12	-193.223E-3	-192.913E-3	90.5007E-3	39.9940E-12	-972.319E-3	24.9169E-3
-204.724E-3	-26.6984E-12	-205.054E-3	-204.724E-3	-7.22116E-3	40.0883E-12	-1.03766E+0	26.8926E-3
-216.535E-3	-27.4272E-12	-216.846E-3	-216.535E-3	-175.535E-3	39.9372E-12	-1.09629E+0	29.6317E-3
-228.346E-3	-29.1720E-12	-228.675E-3	-228.346E-3	60.9285E-3	40.0979E-12	-1.04262E+0	26.1288E-3
-240.157E-3	-30.1531E-12	-240.464E-3	-240.157E-3	-177.419E-3	40.0241E-12	-1.14414E+0	27.9224E-3
-251.969E-3	-31.5395E-12	-252.289E-3	-251.969E-3	35.4736E-3	39.9876E-12	-1.09797E+0	27.2455E-3
-263.780E-3	-32.7091E-12	-264.050E-3	-263.780E-3	112.367E-3	39.9632E-12	-1.06821E+0	26.9424E-3
-275.591E-3	-34.1095E-12	-275.869E-3	-275.591E-3	-99.0395E-3	39.9801E-12	-1.13123E+0	30.0857E-3
-287.402E-3	-35.7972E-12	-287.715E-3	-287.402E-3	-21.2199E-3	40.0919E-12	-1.14251E+0	24.4421E-3
-299.213E-3	-36.4726E-12	-299.504E-3	-299.213E-3	-167.474E-3	39.9281E-12	-1.17952E+0	30.2369E-3
-311.024E-3	-37.5231E-12	-311.333E-3	-311.024E-3	-39.2993E-3	40.0405E-12	-1.22207E+0	29.3503E-3
-322.835E-3	-39.1130E-12	-323.127E-3	-322.835E-3	142.320E-3	40.0109E-12	-1.14987E+0	31.1195E-3
-334.646E-3	-40.2654E-12	-334.902E-3	-334.646E-3	-60.0337E-3	40.0373E-12	-1.18346E+0	26.6168E-3
-346.457E-3	-41.1892E-12	-346.720E-3	-346.457E-3	67.4525E-3	39.8743E-12	-1.15606E+0	28.2073E-3
-358.268E-3	-42.2245E-12	-358.559E-3	-358.268E-3	-52.4081E-3	40.0098E-12	-1.21828E+0	30.5497E-3
-370.079E-3	-43.6999E-12	-370.366E-3	-370.079E-3	9.33958E-3	40.0020E-12	-1.17598E+0	28.8593E-3
-381.890E-3	-44.6155E-12	-382.139E-3	-381.890E-3	56.8923E-3	40.0183E-12	-1.17788E+0	27.5039E-3
-393.701E-3	-45.6091E-12	-394.011E-3	-393.701E-3	-101.248E-3	39.9740E-12	-1.23575E+0	29.5863E-3
-405.512E-3	-46.7562E-12	-405.825E-3	-405.512E-3	195.384E-3	40.0127E-12	-1.15628E+0	25.2800E-3
-417.323E-3	-47.9411E-12	-417.621E-3	-417.323E-3	-43.5623E-3	39.9251E-12	-1.21421E+0	28.2093E-3
-429.134E-3	-48.6003E-12	-429.429E-3	-429.134E-3	3.88232E-3	40.0114E-12	-1.23079E+0	25.7260E-3
-440.945E-3	-49.0916E-12	-441.225E-3	-440.945E-3	-175.138E-3	39.9629E-12	-1.32296E+0	28.4835E-3
-452.756E-3	-50.7197E-12	-453.037E-3	-452.756E-3	35.3949E-3	39.9946E-12	-1.29622E+0	26.5715E-3
-464.567E-3	-51.1816E-12	-464.860E-3	-464.567E-3	-109.245E-3	40.0062E-12	-1.34266E+0	28.2451E-3
-476.378E-3	-52.0830E-12	-476.691E-3	-476.378E-3	-78.7920E-3	39.9306E-12	-1.36408E+0	31.6905E-3
-488.189E-3	-52.5908E-12	-488.422E-3	-488.189E-3	-39.0891E-3	39.9643E-12	-1.35293E+0	30.7982E-3
-500.000E-3	-52.7538E-12	-500.256E-3	-500.000E-3	-69.6849E-3	39.8859E-12	-1.37510E+0	35.1558E-3
