Experiment	bias spectroscopy	
Date	30.11.2015 19:26:29	
User		
X (m)	28.4999E-9	
Y (m)	-165.345E-9	
Z (m)	-3.75578E-9	
Z offset (m)	0E+0	
Settling time (s)	30E-3	
Integration time (s)	200E-3	
Z-Ctrl hold	TRUE	
Final Z (m)	-3.75578E-9	
Filter type	None	
Order		
Cutoff frq		
Current (A)	59.7602E-12	
Z (m)	-3.75578E-9	
Phase (deg)	106.838E-3	
Amplitude (m)	40.5899E-12	
Frequency Shift (Hz)	-677.476E-3	
Excitation (V)	2.49817E-3	

[DATA]
Bias calc (V)	Current (A)	Applied Voltage measured (V)	Bias (V)	Phase (deg)	Amplitude (m)	Frequency Shift (Hz)	Excitation (V)
1.00000E+0	59.5934E-12	999.333E-3	1.00000E+0	70.8611E-3	39.8745E-12	-651.525E-3	26.4476E-3
988.189E-3	59.1727E-12	987.540E-3	988.189E-3	-94.5202E-3	40.1288E-12	-677.558E-3	21.8189E-3
976.378E-3	58.1657E-12	975.771E-3	976.378E-3	-47.0029E-3	39.9272E-12	-707.165E-3	23.2930E-3
964.567E-3	57.8433E-12	963.907E-3	964.567E-3	75.1803E-3	39.9253E-12	-667.326E-3	26.5310E-3
952.756E-3	58.2848E-12	952.153E-3	952.756E-3	162.693E-3	40.1127E-12	-620.674E-3	22.3145E-3
940.945E-3	56.8757E-12	940.315E-3	940.945E-3	-47.4082E-3	40.0582E-12	-685.930E-3	24.0745E-3
929.134E-3	56.6275E-12	928.502E-3	929.134E-3	225.574E-3	39.8513E-12	-580.885E-3	27.1883E-3
917.323E-3	55.7689E-12	916.751E-3	917.323E-3	-115.923E-3	40.0859E-12	-657.486E-3	20.5965E-3
905.512E-3	55.0910E-12	904.879E-3	905.512E-3	-155.269E-3	39.9396E-12	-687.976E-3	23.7196E-3
893.701E-3	55.3123E-12	893.125E-3	893.701E-3	13.3233E-3	40.0162E-12	-656.468E-3	27.7105E-3
881.890E-3	54.4161E-12	881.287E-3	881.890E-3	-77.9700E-3	40.0694E-12	-714.826E-3	20.2531E-3
870.079E-3	54.4083E-12	869.485E-3	870.079E-3	-78.8800E-3	40.0541E-12	-682.118E-3	22.1904E-3
858.268E-3	53.0755E-12	857.658E-3	858.268E-3	272.873E-3	39.9624E-12	-566.192E-3	26.0543E-3
846.457E-3	52.6754E-12	845.823E-3	846.457E-3	-47.0243E-3	39.9079E-12	-628.441E-3	25.7782E-3
834.646E-3	51.6219E-12	834.046E-3	834.646E-3	84.5101E-3	39.9733E-12	-568.695E-3	28.2254E-3
822.835E-3	52.0349E-12	822.244E-3	822.835E-3	-86.5879E-3	40.1625E-12	-613.180E-3	23.4684E-3
811.024E-3	50.9334E-12	810.418E-3	811.024E-3	40.7902E-3	39.9459E-12	-594.985E-3	25.2978E-3
799.213E-3	50.3267E-12	798.650E-3	799.213E-3	26.6403E-3	40.0222E-12	-590.236E-3	24.1255E-3
787.402E-3	49.8920E-12	786.821E-3	787.402E-3	-8.64732E-3	40.0345E-12	-602.012E-3	23.9956E-3
775.591E-3	49.3629E-12	775.027E-3	775.591E-3	123.700E-3	39.9422E-12	-565.253E-3	27.6094E-3
763.780E-3	48.7250E-12	763.209E-3	763.780E-3	-38.7920E-3	39.9982E-12	-634.181E-3	22.8685E-3
751.969E-3	48.3241E-12	751.427E-3	751.969E-3	-96.1221E-3	39.9711E-12	-657.372E-3	26.7994E-3
740.157E-3	47.8023E-12	739.624E-3	740.157E-3	-45.8745E-3	40.0296E-12	-650.390E-3	24.2077E-3
728.346E-3	47.4994E-12	727.789E-3	728.346E-3	46.3251E-3	40.0651E-12	-606.958E-3	25.4178E-3
716.535E-3	46.6750E-12	715.993E-3	716.535E-3	-28.8411E-3	40.0096E-12	-635.471E-3	23.5081E-3
704.724E-3	46.4697E-12	704.303E-3	704.724E-3	168.337E-3	40.0098E-12	-546.189E-3	29.3439E-3
692.913E-3	45.0759E-12	692.499E-3	692.913E-3	-96.5638E-3	39.9855E-12	-634.563E-3	24.3033E-3
681.102E-3	44.4228E-12	680.725E-3	681.102E-3	-9.97748E-3	39.9612E-12	-623.792E-3	23.8428E-3
669.291E-3	44.2857E-12	668.906E-3	669.291E-3	108.242E-3	40.0758E-12	-570.616E-3	24.2319E-3
657.480E-3	43.5921E-12	657.069E-3	657.480E-3	67.5485E-3	39.9178E-12	-580.559E-3	25.3282E-3
645.669E-3	42.5735E-12	645.267E-3	645.669E-3	-24.4643E-3	39.9489E-12	-611.320E-3	27.0110E-3
633.858E-3	42.0971E-12	633.461E-3	633.858E-3	165.589E-3	40.0620E-12	-559.475E-3	22.8947E-3
622.047E-3	41.4368E-12	621.667E-3	622.047E-3	79.7230E-3	39.9488E-12	-553.927E-3	28.6854E-3
610.236E-3	40.8528E-12	609.896E-3	610.236E-3	23.2054E-3	40.0569E-12	-575.576E-3	21.6516E-3
598.425E-3	40.6274E-12	598.087E-3	598.425E-3	79.8249E-3	40.0676E-12	-530.912E-3	21.1824E-3
586.614E-3	38.7591E-12	586.279E-3	586.614E-3	-20.3275E-3	39.9471E-12	-560.316E-3	27.7181E-3
574.803E-3	38.9975E-12	574.456E-3	574.803E-3	-16.5008E-3	39.9733E-12	-584.169E-3	25.7223E-3
562.992E-3	38.3572E-12	562.680E-3	562.992E-3	-5.41451E-3	39.9820E-12	-576.468E-3	26.3192E-3
551.181E-3	37.5998E-12	550.866E-3	551.181E-3	45.7463E-3	40.0861E-12	-570.948E-3	23.3818E-3
539.370E-3	36.5780E-12	538.989E-3	539.370E-3	-88.7324E-3	40.0083E-12	-621.354E-3	24.7139E-3
527.559E-3	36.0170E-12	527.206E-3	527.559E-3	-95.4226E-3	39.9641E-12	-637.460E-3	24.3652E-3
515.748E-3	35.5244E-12	515.374E-3	515.748E-3	114.814E-3	39.9797E-12	-563.783E-3	23.6347E-3
503.937E-3	34.8229E-12	503.592E-3	503.937E-3	14.7720E-3	40.0089E-12	-580.436E-3	25.1369E-3
492.126E-3	34.0002E-12	491.766E-3	492.126E-3	-210.790E-3	39.9341E-12	-661.614E-3	23.6405E-3
480.315E-3	33.6422E-12	479.959E-3	480.315E-3	48.6286E-3	40.0081E-12	-593.204E-3	27.4741E-3
468.504E-3	32.9219E-12	468.170E-3	468.504E-3	257.589E-3	40.0275E-12	-508.464E-3	25.7065E-3
456.693E-3	31.9283E-12	456.352E-3	456.693E-3	-27.4290E-3	39.9847E-12	-575.802E-3	22.9648E-3
444.882E-3	31.1136E-12	444.583E-3	444.882E-3	-27.2657E-3	39.9709E-12	-585.514E-3	26.7500E-3
433.071E-3	30.6247E-12	432.753E-3	433.071E-3	-32.8825E-3	39.9390E-12	-595.424E-3	26.3994E-3
421.260E-3	30.0179E-12	420.936E-3	421.260E-3	-234.304E-3	40.1282E-12	-686.373E-3	23.8440E-3
409.449E-3	29.0068E-12	409.157E-3	409.449E-3	165.442E-3	40.0647E-12	-553.960E-3	22.4138E-3
397.638E-3	28.2083E-12	397.304E-3	397.638E-3	282.232E-3	39.9257E-12	-519.678E-3	27.5103E-3
385.827E-3	27.6697E-12	385.557E-3	385.827E-3	54.4243E-3	40.0507E-12	-544.483E-3	27.9775E-3
374.016E-3	26.6103E-12	373.716E-3	374.016E-3	-113.162E-3	40.0070E-12	-620.049E-3	25.2937E-3
362.205E-3	26.1167E-12	361.919E-3	362.205E-3	-106.147E-3	40.0137E-12	-635.961E-3	25.5269E-3
350.394E-3	25.0315E-12	350.167E-3	350.394E-3	-25.9257E-3	40.0718E-12	-617.401E-3	22.7228E-3
338.583E-3	24.2181E-12	338.302E-3	338.583E-3	-12.3969E-3	39.9312E-12	-619.734E-3	27.6154E-3
326.772E-3	23.8178E-12	326.526E-3	326.772E-3	284.518E-3	40.0073E-12	-526.127E-3	27.4102E-3
314.961E-3	22.6107E-12	314.689E-3	314.961E-3	-4.48169E-3	39.9611E-12	-606.254E-3	29.1564E-3
303.150E-3	21.6149E-12	302.878E-3	303.150E-3	-30.8657E-3	39.9869E-12	-619.447E-3	28.1080E-3
291.339E-3	21.1307E-12	291.126E-3	291.339E-3	46.8216E-3	40.0235E-12	-596.163E-3	23.2679E-3
279.528E-3	20.0243E-12	279.293E-3	279.528E-3	-190.436E-3	39.9612E-12	-679.309E-3	24.6126E-3
267.717E-3	19.1336E-12	267.476E-3	267.717E-3	-81.4721E-3	39.9620E-12	-646.211E-3	24.4592E-3
255.906E-3	18.2954E-12	255.648E-3	255.906E-3	-25.5711E-3	39.9731E-12	-634.405E-3	26.4777E-3
244.094E-3	17.4413E-12	243.876E-3	244.094E-3	87.9861E-3	39.9742E-12	-591.727E-3	27.0973E-3
232.283E-3	16.6454E-12	232.025E-3	232.283E-3	21.5056E-3	40.0098E-12	-594.697E-3	27.0450E-3
220.472E-3	15.8508E-12	220.195E-3	220.472E-3	-152.359E-3	39.9535E-12	-677.188E-3	26.1658E-3
208.661E-3	15.0790E-12	208.411E-3	208.661E-3	-26.7151E-3	40.0975E-12	-647.649E-3	24.1677E-3
196.850E-3	14.0709E-12	196.573E-3	196.850E-3	78.6349E-3	40.0077E-12	-633.691E-3	29.6138E-3
185.039E-3	13.2347E-12	184.812E-3	185.039E-3	-61.2234E-3	40.0666E-12	-664.411E-3	26.5607E-3
173.228E-3	12.1989E-12	172.997E-3	173.228E-3	-28.8426E-3	40.0574E-12	-687.709E-3	25.2789E-3
161.417E-3	11.0725E-12	161.167E-3	161.417E-3	-82.8935E-3	39.9336E-12	-722.303E-3	26.0617E-3
149.606E-3	10.2531E-12	149.343E-3	149.606E-3	145.666E-3	39.9936E-12	-661.934E-3	27.3960E-3
137.795E-3	9.32417E-12	137.561E-3	137.795E-3	63.8690E-3	40.0314E-12	-658.620E-3	29.0517E-3
125.984E-3	8.49348E-12	125.797E-3	125.984E-3	395.012E-6	40.0225E-12	-678.163E-3	27.0054E-3
114.173E-3	7.65356E-12	113.963E-3	114.173E-3	-167.124E-3	39.9821E-12	-746.003E-3	25.4516E-3
102.362E-3	6.72114E-12	102.158E-3	102.362E-3	-4.65315E-3	39.9670E-12	-722.470E-3	27.1337E-3
90.5512E-3	5.95281E-12	90.3485E-3	90.5512E-3	39.8875E-3	40.0625E-12	-714.688E-3	24.0001E-3
78.7402E-3	5.18850E-12	78.5113E-3	78.7402E-3	136.635E-3	40.0373E-12	-665.953E-3	21.4555E-3
66.9291E-3	4.21609E-12	66.6370E-3	66.9291E-3	-17.6445E-3	39.9785E-12	-703.894E-3	24.6202E-3
55.1181E-3	3.42574E-12	54.8673E-3	55.1181E-3	11.7458E-3	40.0055E-12	-713.290E-3	25.6527E-3
43.3071E-3	2.56813E-12	43.0472E-3	43.3071E-3	-39.6996E-3	39.9896E-12	-756.684E-3	23.8738E-3
31.4961E-3	1.81799E-12	31.2118E-3	31.4961E-3	76.4252E-3	39.9385E-12	-722.724E-3	27.0061E-3
19.6850E-3	1.08006E-12	19.4251E-3	19.6850E-3	116.462E-3	39.9759E-12	-711.418E-3	27.8688E-3
7.87402E-3	354.344E-15	7.57324E-3	7.87402E-3	-157.232E-3	40.1194E-12	-790.269E-3	22.8167E-3
-3.93701E-3	-324.422E-15	-4.31784E-3	-3.93701E-3	-31.4709E-3	39.9747E-12	-777.162E-3	27.7917E-3
-15.7480E-3	-1.04133E-12	-16.1103E-3	-15.7480E-3	-75.2601E-3	40.0074E-12	-809.545E-3	28.3611E-3
-27.5591E-3	-1.74277E-12	-27.9220E-3	-27.5591E-3	-81.6119E-3	40.0575E-12	-831.599E-3	24.6401E-3
-39.3701E-3	-2.42993E-12	-39.6821E-3	-39.3701E-3	-35.2428E-3	40.0653E-12	-839.853E-3	23.8650E-3
-51.1811E-3	-3.10893E-12	-51.5421E-3	-51.1811E-3	69.9120E-3	39.9842E-12	-780.334E-3	28.1462E-3
-62.9921E-3	-3.72634E-12	-63.3145E-3	-62.9921E-3	-72.9530E-3	39.9375E-12	-838.241E-3	21.8150E-3
-74.8032E-3	-4.21991E-12	-75.1613E-3	-74.8032E-3	112.306E-3	39.9328E-12	-795.543E-3	29.3474E-3
-86.6142E-3	-4.54460E-12	-87.0153E-3	-86.6142E-3	-25.1450E-3	40.0161E-12	-821.373E-3	25.9939E-3
-98.4252E-3	-4.83379E-12	-98.7839E-3	-98.4252E-3	-75.9917E-3	40.0479E-12	-838.237E-3	28.6196E-3
-110.236E-3	-5.12178E-12	-110.642E-3	-110.236E-3	37.0313E-3	40.0091E-12	-807.659E-3	27.2067E-3
-122.047E-3	-5.37441E-12	-122.375E-3	-122.047E-3	-22.0545E-3	40.0309E-12	-845.747E-3	27.5723E-3
-133.858E-3	-5.65036E-12	-134.232E-3	-133.858E-3	-71.6261E-6	40.0919E-12	-854.295E-3	25.4173E-3
-145.669E-3	-5.80168E-12	-146.040E-3	-145.669E-3	-16.8535E-3	40.0258E-12	-836.165E-3	28.3017E-3
-157.480E-3	-5.91205E-12	-157.817E-3	-157.480E-3	-99.7370E-3	39.9740E-12	-904.105E-3	28.3496E-3
-169.291E-3	-6.24913E-12	-169.689E-3	-169.291E-3	-136.294E-3	39.9671E-12	-923.308E-3	28.8048E-3
-181.102E-3	-6.49753E-12	-181.433E-3	-181.102E-3	169.545E-3	39.9794E-12	-835.345E-3	28.2462E-3
-192.913E-3	-6.76865E-12	-193.240E-3	-192.913E-3	58.5253E-3	40.0456E-12	-853.624E-3	26.5460E-3
-204.724E-3	-7.07713E-12	-205.074E-3	-204.724E-3	-48.6066E-3	40.0176E-12	-879.313E-3	23.8007E-3
-216.535E-3	-7.19509E-12	-216.868E-3	-216.535E-3	-119.852E-3	39.9447E-12	-930.907E-3	28.4252E-3
-228.346E-3	-7.55527E-12	-228.691E-3	-228.346E-3	51.0728E-3	40.0412E-12	-881.012E-3	26.8233E-3
-240.157E-3	-7.85022E-12	-240.490E-3	-240.157E-3	-91.4141E-3	39.9515E-12	-909.248E-3	28.2263E-3
-251.969E-3	-8.07025E-12	-252.310E-3	-251.969E-3	-146.222E-3	39.9939E-12	-973.590E-3	26.6780E-3
-263.780E-3	-8.40322E-12	-264.082E-3	-263.780E-3	88.9942E-3	40.0228E-12	-906.275E-3	26.1348E-3
-275.591E-3	-8.77699E-12	-275.893E-3	-275.591E-3	-195.021E-3	39.9835E-12	-1.00908E+0	28.1926E-3
-287.402E-3	-9.06351E-12	-287.722E-3	-287.402E-3	84.5138E-3	40.0151E-12	-948.279E-3	27.5888E-3
-299.213E-3	-9.49456E-12	-299.518E-3	-299.213E-3	-93.6283E-3	39.9202E-12	-991.144E-3	30.5832E-3
-311.024E-3	-9.75853E-12	-311.357E-3	-311.024E-3	-46.3154E-3	39.9877E-12	-975.442E-3	28.0156E-3
-322.835E-3	-10.1337E-12	-323.146E-3	-322.835E-3	41.7699E-3	40.0680E-12	-951.207E-3	24.1461E-3
-334.646E-3	-10.4422E-12	-334.918E-3	-334.646E-3	-52.3141E-3	39.9766E-12	-994.869E-3	26.5291E-3
-346.457E-3	-10.6581E-12	-346.733E-3	-346.457E-3	85.9353E-3	39.9932E-12	-958.652E-3	24.9124E-3
-358.268E-3	-11.2658E-12	-358.573E-3	-358.268E-3	-15.7416E-3	40.0033E-12	-998.173E-3	24.5180E-3
-370.079E-3	-11.5901E-12	-370.369E-3	-370.079E-3	-226.443E-3	40.0399E-12	-1.09003E+0	25.2153E-3
-381.890E-3	-11.8099E-12	-382.139E-3	-381.890E-3	-29.2663E-3	39.9603E-12	-1.04387E+0	29.1714E-3
-393.701E-3	-12.1241E-12	-394.002E-3	-393.701E-3	90.1455E-3	40.0151E-12	-1.00244E+0	27.1691E-3
-405.512E-3	-12.3073E-12	-405.823E-3	-405.512E-3	6.62190E-3	40.0352E-12	-1.03084E+0	23.3497E-3
-417.323E-3	-12.5597E-12	-417.618E-3	-417.323E-3	-35.6673E-3	39.9689E-12	-1.04964E+0	28.4455E-3
-429.134E-3	-12.9791E-12	-429.432E-3	-429.134E-3	-51.3964E-3	40.0154E-12	-1.05619E+0	26.3441E-3
-440.945E-3	-13.1944E-12	-441.240E-3	-440.945E-3	-189.216E-3	40.0360E-12	-1.13982E+0	26.4357E-3
-452.756E-3	-13.5317E-12	-453.043E-3	-452.756E-3	147.960E-3	39.9969E-12	-1.04590E+0	28.9037E-3
-464.567E-3	-13.5788E-12	-464.863E-3	-464.567E-3	7.00262E-3	39.9292E-12	-1.06667E+0	28.8282E-3
-476.378E-3	-13.9031E-12	-476.677E-3	-476.378E-3	-187.505E-3	40.0774E-12	-1.13314E+0	24.2487E-3
-488.189E-3	-14.1923E-12	-488.405E-3	-488.189E-3	-201.798E-3	40.0610E-12	-1.18874E+0	23.2027E-3
-500.000E-3	-14.2910E-12	-500.250E-3	-500.000E-3	36.0732E-3	39.9059E-12	-1.15709E+0	29.4556E-3
