Experiment	bias spectroscopy	
Date	01.12.2015 12:06:07	
User		
X (m)	279.235E-9	
Y (m)	-138.467E-9	
Z (m)	-4.15189E-9	
Z offset (m)	0E+0	
Settling time (s)	30E-3	
Integration time (s)	200E-3	
Z-Ctrl hold	TRUE	
Final Z (m)	-4.15189E-9	
Filter type	None	
Order		
Cutoff frq		
Current (A)	44.1559E-12	
Z (m)	-4.15189E-9	
Phase (deg)	-152.158E-3	
Amplitude (m)	39.8928E-12	
Frequency Shift (Hz)	-1.14917E+0	
Excitation (V)	25.8116E-3	

[DATA]
Bias calc (V)	Current (A)	Applied Voltage measured (V)	Bias (V)	Phase (deg)	Amplitude (m)	Frequency Shift (Hz)	Excitation (V)
1.00000E+0	43.5204E-12	999.322E-3	1.00000E+0	-47.8180E-3	39.9343E-12	-1.13863E+0	23.8164E-3
988.189E-3	43.2688E-12	987.530E-3	988.189E-3	-94.0986E-3	40.0819E-12	-1.14791E+0	22.6189E-3
976.378E-3	42.8282E-12	975.760E-3	976.378E-3	61.6727E-3	39.9362E-12	-1.10543E+0	28.1096E-3
964.567E-3	42.4688E-12	963.892E-3	964.567E-3	-128.593E-3	40.0006E-12	-1.14566E+0	27.0336E-3
952.756E-3	42.4355E-12	952.139E-3	952.756E-3	23.6508E-3	40.0249E-12	-1.09896E+0	26.8786E-3
940.945E-3	42.4676E-12	940.302E-3	940.945E-3	62.6488E-3	40.0974E-12	-1.06745E+0	23.4670E-3
929.134E-3	41.6917E-12	928.485E-3	929.134E-3	84.6131E-3	39.9602E-12	-1.05885E+0	26.7186E-3
917.323E-3	41.3606E-12	916.723E-3	917.323E-3	15.4912E-3	40.0259E-12	-1.06367E+0	26.2238E-3
905.512E-3	40.7725E-12	904.864E-3	905.512E-3	1.88785E-3	40.0039E-12	-1.07293E+0	26.3268E-3
893.701E-3	40.3737E-12	893.108E-3	893.701E-3	147.297E-3	39.9719E-12	-1.02048E+0	27.0820E-3
881.890E-3	40.4970E-12	881.275E-3	881.890E-3	-11.6486E-3	40.0505E-12	-1.04278E+0	25.2610E-3
870.079E-3	39.8433E-12	869.470E-3	870.079E-3	-748.357E-6	40.0190E-12	-1.05579E+0	23.8745E-3
858.268E-3	39.3560E-12	857.644E-3	858.268E-3	-75.3158E-3	39.9888E-12	-1.08780E+0	25.6230E-3
846.457E-3	39.0166E-12	845.815E-3	846.457E-3	136.490E-3	40.0107E-12	-1.01126E+0	25.5621E-3
834.646E-3	39.1139E-12	834.045E-3	834.646E-3	89.5856E-3	40.0131E-12	-1.01107E+0	22.6151E-3
822.835E-3	38.5752E-12	822.241E-3	822.835E-3	22.1457E-3	39.9990E-12	-1.00641E+0	25.9384E-3
811.024E-3	38.1035E-12	810.417E-3	811.024E-3	187.423E-3	40.0571E-12	-947.752E-3	24.6009E-3
799.213E-3	37.6967E-12	798.645E-3	799.213E-3	-178.811E-3	40.0046E-12	-1.04992E+0	23.7535E-3
787.402E-3	37.6010E-12	786.808E-3	787.402E-3	42.7962E-3	40.0225E-12	-1.00357E+0	21.9774E-3
775.591E-3	37.2200E-12	775.018E-3	775.591E-3	54.2485E-3	40.0479E-12	-1.00328E+0	24.5326E-3
763.780E-3	36.7294E-12	763.193E-3	763.780E-3	78.8660E-3	39.9533E-12	-977.721E-3	26.3111E-3
751.969E-3	36.6565E-12	751.422E-3	751.969E-3	-285.841E-3	40.0294E-12	-1.10135E+0	26.4536E-3
740.157E-3	36.0585E-12	739.614E-3	740.157E-3	85.8836E-3	40.0154E-12	-989.199E-3	24.9065E-3
728.346E-3	35.7069E-12	727.777E-3	728.346E-3	68.9468E-3	40.0847E-12	-975.243E-3	23.2852E-3
716.535E-3	34.8660E-12	715.984E-3	716.535E-3	97.8025E-3	39.8857E-12	-980.255E-3	28.7600E-3
704.724E-3	34.6336E-12	704.292E-3	704.724E-3	62.7513E-3	39.9873E-12	-941.154E-3	28.3238E-3
692.913E-3	34.2324E-12	692.503E-3	692.913E-3	-240.242E-3	40.0034E-12	-1.05817E+0	25.6256E-3
681.102E-3	34.2652E-12	680.719E-3	681.102E-3	44.6506E-3	40.0188E-12	-996.402E-3	22.4867E-3
669.291E-3	33.4865E-12	668.909E-3	669.291E-3	-851.828E-6	39.8966E-12	-994.434E-3	29.6127E-3
657.480E-3	32.8879E-12	657.064E-3	657.480E-3	41.3035E-3	39.9583E-12	-982.205E-3	27.2073E-3
645.669E-3	32.7627E-12	645.254E-3	645.669E-3	70.0653E-3	40.0343E-12	-964.908E-3	24.6659E-3
633.858E-3	31.8112E-12	633.457E-3	633.858E-3	-29.2025E-3	39.9630E-12	-982.155E-3	24.0646E-3
622.047E-3	31.9962E-12	621.650E-3	622.047E-3	-154.800E-3	40.1245E-12	-1.01721E+0	20.3553E-3
610.236E-3	31.4052E-12	609.882E-3	610.236E-3	142.274E-3	39.9371E-12	-910.365E-3	27.5055E-3
598.425E-3	30.7114E-12	598.078E-3	598.425E-3	-61.7349E-3	39.9813E-12	-977.773E-3	25.1566E-3
586.614E-3	30.2676E-12	586.274E-3	586.614E-3	87.5066E-3	39.9771E-12	-936.647E-3	27.0920E-3
574.803E-3	30.1536E-12	574.452E-3	574.803E-3	62.2834E-3	40.0706E-12	-924.320E-3	21.2366E-3
562.992E-3	29.2721E-12	562.664E-3	562.992E-3	-8.81340E-3	39.9858E-12	-964.208E-3	25.2658E-3
551.181E-3	28.6528E-12	550.852E-3	551.181E-3	-55.5499E-3	40.0723E-12	-957.645E-3	25.5322E-3
539.370E-3	28.3753E-12	538.985E-3	539.370E-3	67.1709E-3	39.9758E-12	-912.639E-3	25.4600E-3
527.559E-3	27.9336E-12	527.210E-3	527.559E-3	60.5568E-3	40.0826E-12	-918.416E-3	24.8773E-3
515.748E-3	27.0966E-12	515.376E-3	515.748E-3	72.7243E-3	39.9564E-12	-921.888E-3	27.1031E-3
503.937E-3	26.6872E-12	503.583E-3	503.937E-3	39.8811E-3	39.9744E-12	-936.058E-3	25.2127E-3
492.126E-3	26.0031E-12	491.753E-3	492.126E-3	-24.4458E-3	39.9559E-12	-960.555E-3	23.9286E-3
480.315E-3	25.5593E-12	479.949E-3	480.315E-3	34.4845E-3	40.0072E-12	-930.890E-3	24.8787E-3
468.504E-3	25.0058E-12	468.153E-3	468.504E-3	67.7992E-3	39.9506E-12	-911.983E-3	27.5447E-3
456.693E-3	24.8091E-12	456.340E-3	456.693E-3	-46.9814E-3	39.9743E-12	-955.801E-3	26.5455E-3
444.882E-3	24.1509E-12	444.575E-3	444.882E-3	-109.557E-3	40.0496E-12	-987.921E-3	27.5478E-3
433.071E-3	23.2826E-12	432.739E-3	433.071E-3	-79.3395E-3	39.9688E-12	-986.168E-3	26.1753E-3
421.260E-3	22.8088E-12	420.932E-3	421.260E-3	41.8763E-3	40.0459E-12	-956.165E-3	26.0025E-3
409.449E-3	22.3494E-12	409.160E-3	409.449E-3	-31.8929E-3	40.0211E-12	-966.004E-3	27.0429E-3
397.638E-3	21.8369E-12	397.312E-3	397.638E-3	-15.6566E-3	40.0255E-12	-961.162E-3	25.8640E-3
385.827E-3	21.1051E-12	385.549E-3	385.827E-3	-100.592E-3	40.0155E-12	-1.00336E+0	25.2188E-3
374.016E-3	20.4078E-12	373.701E-3	374.016E-3	40.2100E-3	39.9481E-12	-963.974E-3	27.8210E-3
362.205E-3	19.7064E-12	361.909E-3	362.205E-3	112.973E-3	40.0111E-12	-950.950E-3	23.4092E-3
350.394E-3	19.1796E-12	350.154E-3	350.394E-3	21.7459E-3	39.9816E-12	-974.543E-3	26.6219E-3
338.583E-3	18.5943E-12	338.292E-3	338.583E-3	-52.1601E-3	40.0608E-12	-988.208E-3	24.3755E-3
326.772E-3	17.9879E-12	326.493E-3	326.772E-3	65.9941E-3	39.9926E-12	-956.193E-3	28.0543E-3
314.961E-3	17.1705E-12	314.660E-3	314.961E-3	-86.3819E-3	40.0323E-12	-1.01086E+0	25.2022E-3
303.150E-3	16.6616E-12	302.844E-3	303.150E-3	7.68557E-3	39.9520E-12	-1.00169E+0	27.6167E-3
291.339E-3	15.9315E-12	291.088E-3	291.339E-3	69.1272E-3	40.0028E-12	-985.132E-3	24.4811E-3
279.528E-3	15.4996E-12	279.262E-3	279.528E-3	105.214E-3	39.9995E-12	-964.758E-3	25.1469E-3
267.717E-3	14.7166E-12	267.454E-3	267.717E-3	-59.6439E-3	39.9613E-12	-997.335E-3	24.8216E-3
255.906E-3	13.9803E-12	255.624E-3	255.906E-3	40.5335E-3	40.0118E-12	-978.887E-3	26.0536E-3
244.094E-3	13.3859E-12	243.844E-3	244.094E-3	14.2207E-3	39.9904E-12	-991.874E-3	24.6498E-3
232.283E-3	12.8543E-12	231.996E-3	232.283E-3	-75.6848E-3	40.0234E-12	-1.02692E+0	25.0036E-3
220.472E-3	12.1469E-12	220.163E-3	220.472E-3	33.1689E-3	40.0342E-12	-1.00043E+0	26.2770E-3
208.661E-3	11.4531E-12	208.385E-3	208.661E-3	-18.6796E-3	39.9607E-12	-1.03849E+0	27.3721E-3
196.850E-3	10.9271E-12	196.548E-3	196.850E-3	-67.7276E-3	39.9469E-12	-1.04930E+0	27.1733E-3
185.039E-3	10.2631E-12	184.788E-3	185.039E-3	51.9834E-3	40.0207E-12	-1.03049E+0	23.3480E-3
173.228E-3	9.68575E-12	172.976E-3	173.228E-3	-85.5059E-3	39.9754E-12	-1.07009E+0	25.9618E-3
161.417E-3	8.94213E-12	161.152E-3	161.417E-3	28.5099E-3	39.9642E-12	-1.03259E+0	28.0826E-3
149.606E-3	8.33392E-12	149.324E-3	149.606E-3	59.6748E-3	40.0477E-12	-1.01401E+0	25.4224E-3
137.795E-3	7.72678E-12	137.532E-3	137.795E-3	-113.565E-3	39.9669E-12	-1.07438E+0	24.4336E-3
125.984E-3	7.07503E-12	125.762E-3	125.984E-3	13.8019E-3	40.0077E-12	-1.03900E+0	23.0043E-3
114.173E-3	6.42524E-12	113.925E-3	114.173E-3	-64.5918E-3	40.0018E-12	-1.09817E+0	27.5043E-3
102.362E-3	5.75552E-12	102.131E-3	102.362E-3	45.7509E-3	40.0014E-12	-1.06846E+0	26.6199E-3
90.5512E-3	5.01090E-12	90.3196E-3	90.5512E-3	68.5410E-3	39.9294E-12	-1.04710E+0	26.5409E-3
78.7402E-3	4.37186E-12	78.4834E-3	78.7402E-3	-46.4798E-3	40.0210E-12	-1.08834E+0	25.5607E-3
66.9291E-3	3.77686E-12	66.6132E-3	66.9291E-3	-70.5753E-3	40.0298E-12	-1.14054E+0	25.7462E-3
55.1181E-3	3.10209E-12	54.8528E-3	55.1181E-3	15.9042E-3	39.9284E-12	-1.10987E+0	28.3340E-3
43.3071E-3	2.43912E-12	43.0272E-3	43.3071E-3	44.3265E-3	40.0509E-12	-1.09828E+0	20.1643E-3
31.4961E-3	1.77170E-12	31.1999E-3	31.4961E-3	-82.1955E-3	39.9201E-12	-1.14394E+0	26.4197E-3
19.6850E-3	1.05520E-12	19.3957E-3	19.6850E-3	50.0943E-3	40.0425E-12	-1.10838E+0	26.4598E-3
7.87402E-3	354.716E-15	7.53898E-3	7.87402E-3	123.041E-3	40.0540E-12	-1.07083E+0	23.1965E-3
-3.93701E-3	-312.010E-15	-4.34404E-3	-3.93701E-3	-15.5212E-3	39.9204E-12	-1.12242E+0	29.6582E-3
-15.7480E-3	-979.521E-15	-16.1277E-3	-15.7480E-3	-149.983E-3	39.9969E-12	-1.17175E+0	26.1323E-3
-27.5591E-3	-1.62994E-12	-27.9311E-3	-27.5591E-3	-19.4888E-3	39.9912E-12	-1.14634E+0	27.6436E-3
-39.3701E-3	-2.29215E-12	-39.6995E-3	-39.3701E-3	-33.5084E-3	39.9465E-12	-1.15269E+0	28.7533E-3
-51.1811E-3	-2.90812E-12	-51.5642E-3	-51.1811E-3	-92.4166E-3	39.9773E-12	-1.18543E+0	27.8803E-3
-62.9921E-3	-3.54224E-12	-63.3313E-3	-62.9921E-3	-36.1005E-3	40.0111E-12	-1.16110E+0	28.9691E-3
-74.8032E-3	-4.02100E-12	-75.1727E-3	-74.8032E-3	98.7061E-3	40.0479E-12	-1.13751E+0	27.0784E-3
-86.6142E-3	-4.29228E-12	-87.0340E-3	-86.6142E-3	-52.9620E-3	39.9640E-12	-1.17890E+0	25.5186E-3
-98.4252E-3	-4.58037E-12	-98.7986E-3	-98.4252E-3	-80.5324E-3	40.0828E-12	-1.21891E+0	24.2002E-3
-110.236E-3	-4.78391E-12	-110.658E-3	-110.236E-3	-9.15546E-3	39.9245E-12	-1.20199E+0	29.2291E-3
-122.047E-3	-5.01512E-12	-122.392E-3	-122.047E-3	-48.0350E-3	40.0042E-12	-1.22703E+0	27.4492E-3
-133.858E-3	-5.20766E-12	-134.246E-3	-133.858E-3	-36.4526E-3	40.0243E-12	-1.23818E+0	23.2799E-3
-145.669E-3	-5.49084E-12	-146.037E-3	-145.669E-3	22.9082E-3	40.0108E-12	-1.22103E+0	27.5707E-3
-157.480E-3	-5.78348E-12	-157.805E-3	-157.480E-3	-35.2312E-3	40.0494E-12	-1.21726E+0	25.0733E-3
-169.291E-3	-5.99519E-12	-169.682E-3	-169.291E-3	-121.842E-3	39.9682E-12	-1.26501E+0	23.4019E-3
-181.102E-3	-6.36015E-12	-181.428E-3	-181.102E-3	-88.3542E-3	40.0157E-12	-1.26568E+0	27.1482E-3
-192.913E-3	-6.55952E-12	-193.244E-3	-192.913E-3	-5.57063E-3	39.9680E-12	-1.23554E+0	27.7910E-3
-204.724E-3	-6.95056E-12	-205.067E-3	-204.724E-3	35.8245E-3	40.0156E-12	-1.23607E+0	27.6028E-3
-216.535E-3	-7.23997E-12	-216.873E-3	-216.535E-3	-87.7912E-3	39.9929E-12	-1.27385E+0	26.9640E-3
-228.346E-3	-7.54331E-12	-228.695E-3	-228.346E-3	-134.654E-3	40.0661E-12	-1.30375E+0	24.7743E-3
-240.157E-3	-8.00046E-12	-240.490E-3	-240.157E-3	52.8669E-3	40.0317E-12	-1.26109E+0	28.5550E-3
-251.969E-3	-8.32518E-12	-252.311E-3	-251.969E-3	-121.766E-3	39.9914E-12	-1.33948E+0	30.0633E-3
-263.780E-3	-8.63938E-12	-264.080E-3	-263.780E-3	-583.055E-6	40.0541E-12	-1.29013E+0	28.8936E-3
-275.591E-3	-8.96771E-12	-275.879E-3	-275.591E-3	-27.7343E-3	39.9163E-12	-1.31218E+0	29.6743E-3
-287.402E-3	-9.49846E-12	-287.723E-3	-287.402E-3	-63.6151E-3	40.0400E-12	-1.33313E+0	27.2626E-3
-299.213E-3	-9.88947E-12	-299.517E-3	-299.213E-3	28.7033E-3	39.9738E-12	-1.29828E+0	26.9633E-3
-311.024E-3	-10.2849E-12	-311.348E-3	-311.024E-3	-54.9300E-3	39.9183E-12	-1.33987E+0	28.5448E-3
-322.835E-3	-10.5704E-12	-323.146E-3	-322.835E-3	-72.7523E-3	40.0741E-12	-1.36263E+0	24.4333E-3
-334.646E-3	-10.8022E-12	-334.913E-3	-334.646E-3	-92.6183E-3	40.0235E-12	-1.39014E+0	24.9600E-3
-346.457E-3	-11.1812E-12	-346.733E-3	-346.457E-3	-77.7070E-3	39.9854E-12	-1.42596E+0	26.7758E-3
-358.268E-3	-11.6026E-12	-358.578E-3	-358.268E-3	50.2079E-3	40.0763E-12	-1.42391E+0	26.1980E-3
-370.079E-3	-11.6602E-12	-370.376E-3	-370.079E-3	-18.7656E-3	39.8754E-12	-1.43542E+0	28.0176E-3
-381.890E-3	-12.2768E-12	-382.147E-3	-381.890E-3	-27.5825E-3	40.0686E-12	-1.44119E+0	24.4980E-3
-393.701E-3	-12.6608E-12	-394.008E-3	-393.701E-3	63.6787E-3	40.0122E-12	-1.42108E+0	27.0923E-3
-405.512E-3	-13.1366E-12	-405.824E-3	-405.512E-3	-81.9274E-3	40.0459E-12	-1.46160E+0	25.4240E-3
-417.323E-3	-13.5359E-12	-417.623E-3	-417.323E-3	-126.592E-3	39.9769E-12	-1.49993E+0	26.4067E-3
-429.134E-3	-13.9499E-12	-429.430E-3	-429.134E-3	-129.106E-3	39.9813E-12	-1.53833E+0	28.5115E-3
-440.945E-3	-14.4766E-12	-441.230E-3	-440.945E-3	131.822E-3	39.9813E-12	-1.46823E+0	29.1660E-3
-452.756E-3	-14.9031E-12	-453.026E-3	-452.756E-3	-60.6534E-3	39.9530E-12	-1.52158E+0	30.0197E-3
-464.567E-3	-15.1620E-12	-464.859E-3	-464.567E-3	-111.146E-3	39.9338E-12	-1.55051E+0	31.3981E-3
-476.378E-3	-15.7137E-12	-476.688E-3	-476.378E-3	111.435E-3	40.0597E-12	-1.48747E+0	23.3864E-3
-488.189E-3	-16.0905E-12	-488.418E-3	-488.189E-3	-40.7717E-3	40.0387E-12	-1.54260E+0	25.7004E-3
-500.000E-3	-16.2442E-12	-500.246E-3	-500.000E-3	37.8441E-3	39.9742E-12	-1.53703E+0	30.9182E-3
