Experiment	bias spectroscopy	
Date	01.12.2015 06:22:44	
User		
X (m)	281.529E-9	
Y (m)	-138.445E-9	
Z (m)	-4.07703E-9	
Z offset (m)	0E+0	
Settling time (s)	30E-3	
Integration time (s)	200E-3	
Z-Ctrl hold	TRUE	
Final Z (m)	-4.07703E-9	
Filter type	None	
Order		
Cutoff frq		
Current (A)	15.3646E-12	
Z (m)	-4.07703E-9	
Phase (deg)	567.635E-3	
Amplitude (m)	39.4406E-12	
Frequency Shift (Hz)	-911.03E-3	
Excitation (V)	49.3729E-3	

[DATA]
Bias calc (V)	Current (A)	Applied Voltage measured (V)	Bias (V)	Phase (deg)	Amplitude (m)	Frequency Shift (Hz)	Excitation (V)
1.00000E+0	15.3031E-12	999.327E-3	1.00000E+0	40.6921E-3	40.0350E-12	-1.09368E+0	26.1649E-3
988.189E-3	15.0469E-12	987.531E-3	988.189E-3	132.853E-3	39.9720E-12	-1.06405E+0	26.7698E-3
976.378E-3	15.0307E-12	975.773E-3	976.378E-3	-7.15852E-3	39.9620E-12	-1.09670E+0	25.2312E-3
964.567E-3	14.9504E-12	963.896E-3	964.567E-3	34.8230E-3	40.0635E-12	-1.07181E+0	22.1303E-3
952.756E-3	14.6806E-12	952.148E-3	952.756E-3	36.4587E-3	40.0171E-12	-1.05140E+0	26.5346E-3
940.945E-3	14.9408E-12	940.311E-3	940.945E-3	126.194E-3	40.0454E-12	-1.02677E+0	23.9519E-3
929.134E-3	14.6484E-12	928.490E-3	929.134E-3	82.8888E-3	40.0172E-12	-1.02933E+0	23.1825E-3
917.323E-3	14.3420E-12	916.737E-3	917.323E-3	117.977E-3	39.9981E-12	-1.00702E+0	23.1893E-3
905.512E-3	14.3613E-12	904.885E-3	905.512E-3	2.26217E-3	40.0301E-12	-1.01815E+0	23.7951E-3
893.701E-3	14.1055E-12	893.124E-3	893.701E-3	176.084E-3	39.9633E-12	-967.345E-3	24.5824E-3
881.890E-3	13.8593E-12	881.289E-3	881.890E-3	-76.4693E-3	39.9619E-12	-1.04937E+0	25.2393E-3
870.079E-3	13.8553E-12	869.479E-3	870.079E-3	63.7611E-3	39.9851E-12	-982.906E-3	24.5204E-3
858.268E-3	13.6136E-12	857.659E-3	858.268E-3	-18.0377E-3	40.0491E-12	-1.02746E+0	24.4370E-3
846.457E-3	13.4600E-12	845.822E-3	846.457E-3	157.272E-3	39.9683E-12	-959.267E-3	25.5368E-3
834.646E-3	13.4914E-12	834.050E-3	834.646E-3	-16.4011E-3	40.0179E-12	-982.689E-3	27.2516E-3
822.835E-3	13.1836E-12	822.236E-3	822.835E-3	40.2650E-3	40.0133E-12	-963.441E-3	24.2378E-3
811.024E-3	13.0465E-12	810.411E-3	811.024E-3	13.0162E-3	39.9976E-12	-978.834E-3	25.4525E-3
799.213E-3	13.0888E-12	798.644E-3	799.213E-3	2.95920E-3	39.9713E-12	-995.434E-3	26.2181E-3
787.402E-3	12.8790E-12	786.820E-3	787.402E-3	168.867E-3	40.0005E-12	-925.447E-3	26.2875E-3
775.591E-3	12.6697E-12	775.020E-3	775.591E-3	-70.7388E-3	39.9933E-12	-979.222E-3	25.2876E-3
763.780E-3	12.6510E-12	763.192E-3	763.780E-3	105.821E-3	40.0426E-12	-939.443E-3	22.9216E-3
751.969E-3	12.4789E-12	751.417E-3	751.969E-3	193.325E-3	40.0030E-12	-895.581E-3	25.2150E-3
740.157E-3	12.3400E-12	739.622E-3	740.157E-3	-16.4894E-3	39.9568E-12	-977.535E-3	28.3059E-3
728.346E-3	11.9718E-12	727.787E-3	728.346E-3	55.6507E-3	39.9465E-12	-938.862E-3	25.6976E-3
716.535E-3	11.8087E-12	716.006E-3	716.535E-3	56.5957E-3	39.9635E-12	-929.787E-3	28.6632E-3
704.724E-3	11.7738E-12	704.310E-3	704.724E-3	-153.804E-3	39.9581E-12	-1.03035E+0	26.8079E-3
692.913E-3	11.4669E-12	692.515E-3	692.913E-3	123.809E-3	40.0060E-12	-939.510E-3	24.6476E-3
681.102E-3	11.4147E-12	680.744E-3	681.102E-3	82.4543E-3	40.0350E-12	-925.041E-3	27.0263E-3
669.291E-3	11.1755E-12	668.926E-3	669.291E-3	-118.203E-3	39.9862E-12	-985.246E-3	24.0582E-3
657.480E-3	11.2524E-12	657.090E-3	657.480E-3	62.8517E-3	40.0295E-12	-926.666E-3	25.5690E-3
645.669E-3	11.0549E-12	645.281E-3	645.669E-3	-35.8895E-3	40.0302E-12	-952.060E-3	24.8858E-3
633.858E-3	10.7952E-12	633.478E-3	633.858E-3	66.5035E-3	39.9761E-12	-900.194E-3	25.7822E-3
622.047E-3	10.7802E-12	621.672E-3	622.047E-3	-46.2908E-3	39.9880E-12	-952.792E-3	26.0496E-3
610.236E-3	10.6073E-12	609.909E-3	610.236E-3	-32.5290E-3	39.9258E-12	-953.338E-3	27.9476E-3
598.425E-3	10.4815E-12	598.103E-3	598.425E-3	-53.4185E-3	39.9464E-12	-973.416E-3	31.2851E-3
586.614E-3	10.2865E-12	586.284E-3	586.614E-3	127.596E-3	39.9587E-12	-905.429E-3	27.8337E-3
574.803E-3	10.1947E-12	574.461E-3	574.803E-3	47.9446E-3	40.1053E-12	-926.764E-3	26.0444E-3
562.992E-3	10.0674E-12	562.677E-3	562.992E-3	-42.3160E-3	40.0472E-12	-949.633E-3	25.1342E-3
551.181E-3	9.88809E-12	550.865E-3	551.181E-3	153.511E-3	40.0341E-12	-914.688E-3	26.6715E-3
539.370E-3	9.64771E-12	538.997E-3	539.370E-3	-1.78463E-3	39.9872E-12	-951.170E-3	26.6112E-3
527.559E-3	9.48429E-12	527.214E-3	527.559E-3	24.1609E-3	40.0378E-12	-915.238E-3	24.8051E-3
515.748E-3	9.35436E-12	515.391E-3	515.748E-3	-22.7718E-3	39.9956E-12	-921.334E-3	25.3307E-3
503.937E-3	9.17242E-12	503.604E-3	503.937E-3	69.9319E-3	40.0567E-12	-898.764E-3	25.0248E-3
492.126E-3	8.91729E-12	491.773E-3	492.126E-3	-60.8962E-3	40.0007E-12	-930.338E-3	25.0068E-3
480.315E-3	8.86639E-12	479.961E-3	480.315E-3	-24.4759E-3	39.9748E-12	-940.041E-3	25.3776E-3
468.504E-3	8.64474E-12	468.172E-3	468.504E-3	29.1360E-3	40.0444E-12	-951.170E-3	26.1419E-3
456.693E-3	8.46560E-12	456.361E-3	456.693E-3	70.1836E-3	40.0519E-12	-920.104E-3	23.7218E-3
444.882E-3	8.31328E-12	444.594E-3	444.882E-3	-109.520E-3	39.9876E-12	-983.131E-3	21.7762E-3
433.071E-3	8.11725E-12	432.761E-3	433.071E-3	76.8121E-3	39.9457E-12	-912.147E-3	29.8539E-3
421.260E-3	7.92172E-12	420.956E-3	421.260E-3	-20.7625E-3	39.9684E-12	-956.403E-3	27.0454E-3
409.449E-3	7.73806E-12	409.168E-3	409.449E-3	141.780E-3	40.0483E-12	-894.310E-3	26.0574E-3
397.638E-3	7.58341E-12	397.322E-3	397.638E-3	-86.7052E-3	40.0748E-12	-947.664E-3	24.1421E-3
385.827E-3	7.40194E-12	385.569E-3	385.827E-3	-71.4486E-3	40.0286E-12	-953.921E-3	23.6227E-3
374.016E-3	7.21187E-12	373.718E-3	374.016E-3	-15.7181E-3	39.9469E-12	-956.238E-3	24.5811E-3
362.205E-3	6.99356E-12	361.926E-3	362.205E-3	51.6416E-3	39.9720E-12	-943.961E-3	25.2570E-3
350.394E-3	6.85420E-12	350.173E-3	350.394E-3	-86.5796E-3	39.9684E-12	-976.574E-3	29.7874E-3
338.583E-3	6.74425E-12	338.317E-3	338.583E-3	12.8706E-3	40.0496E-12	-969.753E-3	24.7046E-3
326.772E-3	6.53504E-12	326.533E-3	326.772E-3	108.359E-3	40.0000E-12	-936.100E-3	25.8562E-3
314.961E-3	6.36889E-12	314.692E-3	314.961E-3	70.1717E-3	39.9841E-12	-926.314E-3	22.1445E-3
303.150E-3	6.16126E-12	302.871E-3	303.150E-3	47.7953E-3	39.9667E-12	-947.897E-3	27.0831E-3
291.339E-3	5.97761E-12	291.123E-3	291.339E-3	-138.397E-3	39.9352E-12	-1.01771E+0	29.2065E-3
279.528E-3	5.90314E-12	279.297E-3	279.528E-3	-89.3049E-3	40.1649E-12	-1.01620E+0	21.8324E-3
267.717E-3	5.57569E-12	267.485E-3	267.717E-3	-20.2408E-3	40.0019E-12	-993.425E-3	23.7651E-3
255.906E-3	5.36889E-12	255.666E-3	255.906E-3	154.623E-3	39.9838E-12	-940.416E-3	23.6499E-3
244.094E-3	5.18509E-12	243.885E-3	244.094E-3	-174.292E-3	39.9896E-12	-1.04987E+0	25.9471E-3
232.283E-3	4.98449E-12	232.039E-3	232.283E-3	-25.3279E-3	39.9580E-12	-1.00901E+0	27.1283E-3
220.472E-3	4.79444E-12	220.206E-3	220.472E-3	161.124E-3	39.9826E-12	-928.529E-3	26.7947E-3
208.661E-3	4.58900E-12	208.428E-3	208.661E-3	-47.6529E-3	39.9842E-12	-977.156E-3	26.4094E-3
196.850E-3	4.38491E-12	196.595E-3	196.850E-3	-60.2531E-3	39.9813E-12	-998.997E-3	24.5562E-3
185.039E-3	4.14380E-12	184.827E-3	185.039E-3	64.8793E-3	40.0271E-12	-958.271E-3	26.3514E-3
173.228E-3	3.90254E-12	173.012E-3	173.228E-3	55.6834E-3	39.9691E-12	-958.794E-3	26.4010E-3
161.417E-3	3.65320E-12	161.177E-3	161.417E-3	-27.1093E-3	40.0754E-12	-984.912E-3	21.3341E-3
149.606E-3	3.43077E-12	149.353E-3	149.606E-3	-92.9703E-3	40.0736E-12	-1.02576E+0	25.0336E-3
137.795E-3	3.13810E-12	137.560E-3	137.795E-3	-87.4421E-3	39.9676E-12	-1.03117E+0	24.7772E-3
125.984E-3	2.90432E-12	125.796E-3	125.984E-3	-35.9163E-3	40.0374E-12	-1.05233E+0	26.3038E-3
114.173E-3	2.64691E-12	113.957E-3	114.173E-3	-49.5106E-3	40.0234E-12	-1.04681E+0	26.4976E-3
102.362E-3	2.37553E-12	102.151E-3	102.362E-3	73.4355E-3	40.0332E-12	-993.252E-3	25.5564E-3
90.5512E-3	2.06566E-12	90.3402E-3	90.5512E-3	-22.2205E-3	39.9893E-12	-1.01384E+0	23.7509E-3
78.7402E-3	1.80465E-12	78.5071E-3	78.7402E-3	-164.155E-3	39.9980E-12	-1.07643E+0	26.0862E-3
66.9291E-3	1.53226E-12	66.6319E-3	66.9291E-3	68.9642E-3	40.0505E-12	-1.03042E+0	25.8895E-3
55.1181E-3	1.25209E-12	54.8579E-3	55.1181E-3	-49.2526E-3	39.9898E-12	-1.05343E+0	26.4274E-3
43.3071E-3	967.069E-15	43.0421E-3	43.3071E-3	-17.1335E-3	39.9451E-12	-1.03992E+0	24.8296E-3
31.4961E-3	674.869E-15	31.2136E-3	31.4961E-3	-36.7291E-3	39.9664E-12	-1.08094E+0	25.9232E-3
19.6850E-3	365.736E-15	19.4185E-3	19.6850E-3	60.6346E-3	39.9440E-12	-1.03956E+0	28.9709E-3
7.87402E-3	81.0233E-15	7.56791E-3	7.87402E-3	-119.330E-3	40.0360E-12	-1.08853E+0	24.9481E-3
-3.93701E-3	-212.689E-15	-4.30895E-3	-3.93701E-3	-50.7998E-3	40.0073E-12	-1.10034E+0	27.0849E-3
-15.7480E-3	-533.202E-15	-16.0910E-3	-15.7480E-3	24.6533E-3	39.9602E-12	-1.08453E+0	24.3700E-3
-27.5591E-3	-829.117E-15	-27.9013E-3	-27.5591E-3	-75.6698E-3	40.0423E-12	-1.12167E+0	25.3016E-3
-39.3701E-3	-1.11930E-12	-39.6741E-3	-39.3701E-3	-47.5504E-3	40.0415E-12	-1.11137E+0	23.4126E-3
-51.1811E-3	-1.41372E-12	-51.5376E-3	-51.1811E-3	64.3167E-6	39.9781E-12	-1.08921E+0	24.8449E-3
-62.9921E-3	-1.72172E-12	-63.3130E-3	-62.9921E-3	-225.709E-3	40.0173E-12	-1.20216E+0	24.5630E-3
-74.8032E-3	-1.92257E-12	-75.1492E-3	-74.8032E-3	-91.1251E-3	39.9471E-12	-1.16921E+0	27.1944E-3
-86.6142E-3	-2.06075E-12	-87.0004E-3	-86.6142E-3	97.6136E-3	40.0456E-12	-1.10494E+0	25.8158E-3
-98.4252E-3	-2.17978E-12	-98.7742E-3	-98.4252E-3	-82.4228E-3	40.0543E-12	-1.17240E+0	25.6475E-3
-110.236E-3	-2.28420E-12	-110.626E-3	-110.236E-3	-95.2860E-3	39.9783E-12	-1.19316E+0	27.0039E-3
-122.047E-3	-2.42923E-12	-122.369E-3	-122.047E-3	102.418E-3	40.0609E-12	-1.13506E+0	24.5147E-3
-133.858E-3	-2.57036E-12	-134.230E-3	-133.858E-3	-38.9609E-3	39.9809E-12	-1.16430E+0	26.2507E-3
-145.669E-3	-2.71360E-12	-146.032E-3	-145.669E-3	-92.6390E-3	39.9900E-12	-1.20617E+0	26.1476E-3
-157.480E-3	-2.90585E-12	-157.800E-3	-157.480E-3	-57.6182E-3	40.0205E-12	-1.19388E+0	27.1042E-3
-169.291E-3	-2.99969E-12	-169.678E-3	-169.291E-3	-206.036E-3	39.9857E-12	-1.27426E+0	26.8909E-3
-181.102E-3	-3.12093E-12	-181.418E-3	-181.102E-3	119.288E-3	39.9708E-12	-1.21294E+0	23.5077E-3
-192.913E-3	-3.33940E-12	-193.227E-3	-192.913E-3	95.0716E-3	40.0123E-12	-1.20363E+0	26.8685E-3
-204.724E-3	-3.38639E-12	-205.062E-3	-204.724E-3	-56.3498E-3	39.9684E-12	-1.23457E+0	25.0729E-3
-216.535E-3	-3.57345E-12	-216.850E-3	-216.535E-3	-109.695E-3	40.0087E-12	-1.28221E+0	26.4914E-3
-228.346E-3	-3.68760E-12	-228.670E-3	-228.346E-3	-28.0971E-3	40.0176E-12	-1.25678E+0	24.4208E-3
-240.157E-3	-3.79125E-12	-240.477E-3	-240.157E-3	-127.984E-3	40.0217E-12	-1.29850E+0	26.2073E-3
-251.969E-3	-3.97077E-12	-252.298E-3	-251.969E-3	-24.0297E-3	39.9320E-12	-1.29164E+0	28.2893E-3
-263.780E-3	-4.11418E-12	-264.063E-3	-263.780E-3	39.4311E-3	40.0973E-12	-1.27171E+0	24.4187E-3
-275.591E-3	-4.24961E-12	-275.869E-3	-275.591E-3	34.5798E-3	39.9432E-12	-1.27283E+0	27.3922E-3
-287.402E-3	-4.44196E-12	-287.697E-3	-287.402E-3	17.3658E-3	40.0003E-12	-1.27450E+0	28.8573E-3
-299.213E-3	-4.58438E-12	-299.501E-3	-299.213E-3	-148.023E-3	39.9879E-12	-1.35566E+0	27.0055E-3
-311.024E-3	-4.71810E-12	-311.328E-3	-311.024E-3	23.1930E-3	40.0514E-12	-1.32584E+0	25.7554E-3
-322.835E-3	-4.83930E-12	-323.122E-3	-322.835E-3	150.501E-3	39.9918E-12	-1.28312E+0	29.7420E-3
-334.646E-3	-4.92457E-12	-334.895E-3	-334.646E-3	-58.1703E-3	39.9923E-12	-1.35460E+0	27.9662E-3
-346.457E-3	-5.02926E-12	-346.723E-3	-346.457E-3	-45.8491E-3	40.0402E-12	-1.35517E+0	24.6014E-3
-358.268E-3	-5.17977E-12	-358.555E-3	-358.268E-3	-27.6586E-3	39.9621E-12	-1.35161E+0	30.5100E-3
-370.079E-3	-5.31655E-12	-370.355E-3	-370.079E-3	57.1278E-3	40.0054E-12	-1.33038E+0	27.8445E-3
-381.890E-3	-5.40445E-12	-382.119E-3	-381.890E-3	-147.968E-3	40.0129E-12	-1.41267E+0	27.2545E-3
-393.701E-3	-5.53011E-12	-393.987E-3	-393.701E-3	11.9171E-3	40.0707E-12	-1.39381E+0	23.7267E-3
-405.512E-3	-5.67186E-12	-405.795E-3	-405.512E-3	-85.1565E-3	39.9603E-12	-1.39898E+0	27.0960E-3
-417.323E-3	-5.79488E-12	-417.605E-3	-417.323E-3	-34.7340E-3	40.0245E-12	-1.41699E+0	26.7277E-3
-429.134E-3	-5.99985E-12	-429.411E-3	-429.134E-3	-90.8703E-3	40.0106E-12	-1.43565E+0	24.6507E-3
-440.945E-3	-6.15982E-12	-441.208E-3	-440.945E-3	-121.667E-3	39.9231E-12	-1.47749E+0	25.8852E-3
-452.756E-3	-6.32552E-12	-453.018E-3	-452.756E-3	-13.0321E-3	40.0432E-12	-1.45450E+0	24.6883E-3
-464.567E-3	-6.51877E-12	-464.844E-3	-464.567E-3	-32.8910E-3	40.0404E-12	-1.47696E+0	25.1736E-3
-476.378E-3	-6.75414E-12	-476.665E-3	-476.378E-3	-75.6598E-3	39.9200E-12	-1.51327E+0	29.2333E-3
-488.189E-3	-6.97746E-12	-488.399E-3	-488.189E-3	-435.124E-6	39.9757E-12	-1.50164E+0	27.3526E-3
-500.000E-3	-7.32914E-12	-500.231E-3	-500.000E-3	-63.6124E-3	39.9765E-12	-1.53332E+0	28.7993E-3
