Experiment	bias spectroscopy	
Date	01.12.2015 04:08:52	
User		
X (m)	281.52E-9	
Y (m)	-139.248E-9	
Z (m)	-4.07703E-9	
Z offset (m)	0E+0	
Settling time (s)	30E-3	
Integration time (s)	200E-3	
Z-Ctrl hold	TRUE	
Final Z (m)	-4.07703E-9	
Filter type	None	
Order		
Cutoff frq		
Current (A)	16.3555E-12	
Z (m)	-4.07703E-9	
Phase (deg)	830.936E-3	
Amplitude (m)	39.9644E-12	
Frequency Shift (Hz)	-820.102E-3	
Excitation (V)	23.2952E-3	

[DATA]
Bias calc (V)	Current (A)	Applied Voltage measured (V)	Bias (V)	Phase (deg)	Amplitude (m)	Frequency Shift (Hz)	Excitation (V)
1.00000E+0	16.2788E-12	999.324E-3	1.00000E+0	-25.0384E-3	40.0065E-12	-1.08218E+0	26.0385E-3
988.189E-3	16.0788E-12	987.535E-3	988.189E-3	29.2914E-3	39.9620E-12	-1.09125E+0	26.8148E-3
976.378E-3	16.1727E-12	975.767E-3	976.378E-3	60.9183E-3	40.0223E-12	-1.05325E+0	26.5382E-3
964.567E-3	15.9231E-12	963.897E-3	964.567E-3	134.935E-3	40.1037E-12	-1.00060E+0	24.4554E-3
952.756E-3	15.5953E-12	952.149E-3	952.756E-3	58.2548E-3	39.9918E-12	-1.01567E+0	25.5929E-3
940.945E-3	15.4441E-12	940.305E-3	940.945E-3	1.00047E-3	39.9619E-12	-1.04243E+0	27.6206E-3
929.134E-3	15.4458E-12	928.491E-3	929.134E-3	-49.9993E-3	40.0285E-12	-1.06347E+0	22.5844E-3
917.323E-3	15.1892E-12	916.741E-3	917.323E-3	86.8191E-3	39.9860E-12	-1.01080E+0	26.8324E-3
905.512E-3	15.1397E-12	904.884E-3	905.512E-3	135.787E-3	39.9786E-12	-980.044E-3	25.9761E-3
893.701E-3	14.9741E-12	893.118E-3	893.701E-3	-4.56133E-3	39.9707E-12	-997.631E-3	24.7384E-3
881.890E-3	14.9765E-12	881.283E-3	881.890E-3	-81.8459E-3	40.0803E-12	-1.05483E+0	21.3410E-3
870.079E-3	14.7541E-12	869.480E-3	870.079E-3	125.585E-3	40.0353E-12	-961.064E-3	25.0892E-3
858.268E-3	14.6696E-12	857.651E-3	858.268E-3	33.8264E-3	40.0086E-12	-969.223E-3	25.9021E-3
846.457E-3	14.4911E-12	845.819E-3	846.457E-3	-45.7552E-3	39.9863E-12	-988.790E-3	27.2617E-3
834.646E-3	14.3087E-12	834.044E-3	834.646E-3	75.7006E-3	40.0072E-12	-945.833E-3	24.4943E-3
822.835E-3	14.0882E-12	822.233E-3	822.835E-3	43.6279E-3	40.0074E-12	-948.183E-3	25.6609E-3
811.024E-3	14.2454E-12	810.399E-3	811.024E-3	28.6924E-3	39.9741E-12	-945.116E-3	27.3516E-3
799.213E-3	13.9321E-12	798.633E-3	799.213E-3	99.0835E-3	39.9961E-12	-929.313E-3	24.9017E-3
787.402E-3	13.9041E-12	786.803E-3	787.402E-3	-237.557E-3	40.0341E-12	-1.03214E+0	25.2794E-3
775.591E-3	13.7243E-12	775.016E-3	775.591E-3	59.5792E-3	39.9646E-12	-954.652E-3	27.7860E-3
763.780E-3	13.5060E-12	763.198E-3	763.780E-3	-51.4358E-3	40.0401E-12	-969.819E-3	26.2534E-3
751.969E-3	13.3114E-12	751.416E-3	751.969E-3	-73.4969E-3	40.0070E-12	-997.980E-3	23.9530E-3
740.157E-3	13.2677E-12	739.611E-3	740.157E-3	20.9419E-3	39.9411E-12	-952.161E-3	28.0914E-3
728.346E-3	13.1553E-12	727.785E-3	728.346E-3	59.9604E-3	39.9889E-12	-929.306E-3	25.7645E-3
716.535E-3	13.0354E-12	715.996E-3	716.535E-3	-57.3004E-3	40.0285E-12	-985.915E-3	24.5708E-3
704.724E-3	12.8768E-12	704.302E-3	704.724E-3	-52.1669E-3	39.9710E-12	-978.183E-3	24.6920E-3
692.913E-3	12.6583E-12	692.505E-3	692.913E-3	-178.432E-3	39.9975E-12	-1.03969E+0	26.5152E-3
681.102E-3	12.6127E-12	680.729E-3	681.102E-3	65.6124E-3	40.0263E-12	-957.568E-3	26.9833E-3
669.291E-3	12.2688E-12	668.916E-3	669.291E-3	114.348E-3	39.9714E-12	-912.967E-3	25.2251E-3
657.480E-3	12.1674E-12	657.069E-3	657.480E-3	72.1980E-3	40.0484E-12	-923.742E-3	24.8226E-3
645.669E-3	12.0833E-12	645.269E-3	645.669E-3	76.3688E-3	39.9968E-12	-887.193E-3	26.9788E-3
633.858E-3	11.8970E-12	633.458E-3	633.858E-3	-6.92452E-3	39.9682E-12	-919.610E-3	26.6778E-3
622.047E-3	11.8674E-12	621.653E-3	622.047E-3	-40.9092E-3	39.9973E-12	-944.315E-3	25.5924E-3
610.236E-3	11.8326E-12	609.884E-3	610.236E-3	-9.89523E-3	40.0654E-12	-929.427E-3	24.6142E-3
598.425E-3	11.4101E-12	598.073E-3	598.425E-3	75.0973E-3	39.9150E-12	-902.960E-3	31.4965E-3
586.614E-3	11.4815E-12	586.263E-3	586.614E-3	-3.96725E-3	40.0141E-12	-931.232E-3	26.5323E-3
574.803E-3	11.2181E-12	574.444E-3	574.803E-3	-80.7421E-3	39.9770E-12	-971.368E-3	26.2149E-3
562.992E-3	11.2031E-12	562.666E-3	562.992E-3	152.079E-3	40.0369E-12	-888.740E-3	25.1435E-3
551.181E-3	10.8975E-12	550.853E-3	551.181E-3	-49.8905E-3	39.9806E-12	-921.338E-3	25.2439E-3
539.370E-3	10.7665E-12	538.990E-3	539.370E-3	7.10757E-3	39.9252E-12	-927.352E-3	27.8516E-3
527.559E-3	10.4056E-12	527.213E-3	527.559E-3	-43.0560E-3	39.9776E-12	-947.950E-3	27.7978E-3
515.748E-3	10.3330E-12	515.385E-3	515.748E-3	181.300E-3	40.0179E-12	-869.074E-3	26.8674E-3
503.937E-3	10.1314E-12	503.599E-3	503.937E-3	8.20849E-3	39.9831E-12	-901.430E-3	26.4950E-3
492.126E-3	9.98775E-12	491.770E-3	492.126E-3	-20.5280E-3	39.9766E-12	-942.694E-3	26.0496E-3
480.315E-3	9.87124E-12	479.959E-3	480.315E-3	-33.2516E-3	40.0654E-12	-955.827E-3	23.0691E-3
468.504E-3	9.58642E-12	468.165E-3	468.504E-3	-22.2947E-3	39.9987E-12	-955.701E-3	28.2483E-3
456.693E-3	9.38280E-12	456.357E-3	456.693E-3	-42.2026E-3	39.9602E-12	-953.958E-3	27.8595E-3
444.882E-3	9.25532E-12	444.586E-3	444.882E-3	58.1100E-3	40.0532E-12	-935.792E-3	25.9911E-3
433.071E-3	9.04709E-12	432.743E-3	433.071E-3	29.5621E-3	39.9384E-12	-921.819E-3	27.5435E-3
421.260E-3	8.73566E-12	420.935E-3	421.260E-3	-73.5530E-3	40.0182E-12	-961.415E-3	26.3289E-3
409.449E-3	8.56956E-12	409.166E-3	409.449E-3	88.3771E-3	39.9750E-12	-913.792E-3	27.9401E-3
397.638E-3	8.29718E-12	397.312E-3	397.638E-3	-33.3840E-3	39.9457E-12	-947.053E-3	26.4286E-3
385.827E-3	8.12927E-12	385.544E-3	385.827E-3	25.7444E-3	40.0308E-12	-948.428E-3	26.5285E-3
374.016E-3	7.97665E-12	373.699E-3	374.016E-3	99.0275E-3	40.0136E-12	-917.654E-3	26.9065E-3
362.205E-3	7.81903E-12	361.895E-3	362.205E-3	-58.8583E-3	40.0472E-12	-963.145E-3	21.6311E-3
350.394E-3	7.54007E-12	350.146E-3	350.394E-3	109.487E-3	40.0121E-12	-920.377E-3	25.7999E-3
338.583E-3	7.35741E-12	338.288E-3	338.583E-3	-18.7742E-3	39.9367E-12	-953.784E-3	27.4813E-3
326.772E-3	7.24247E-12	326.505E-3	326.772E-3	79.3158E-3	40.0249E-12	-930.739E-3	25.1853E-3
314.961E-3	6.93693E-12	314.669E-3	314.961E-3	78.2788E-3	40.0320E-12	-929.048E-3	25.2422E-3
303.150E-3	6.73154E-12	302.839E-3	303.150E-3	-166.352E-3	39.9653E-12	-1.00602E+0	27.0115E-3
291.339E-3	6.56711E-12	291.096E-3	291.339E-3	-28.4186E-3	39.9257E-12	-979.923E-3	25.8722E-3
279.528E-3	6.33959E-12	279.271E-3	279.528E-3	-47.0156E-3	40.0076E-12	-983.386E-3	28.1335E-3
267.717E-3	6.06099E-12	267.459E-3	267.717E-3	123.537E-3	40.0755E-12	-911.564E-3	24.7032E-3
255.906E-3	5.74242E-12	255.631E-3	255.906E-3	84.1304E-3	39.9891E-12	-933.697E-3	25.9834E-3
244.094E-3	5.61795E-12	243.851E-3	244.094E-3	-155.114E-3	39.9788E-12	-1.01625E+0	26.1540E-3
232.283E-3	5.43857E-12	232.009E-3	232.283E-3	-54.4057E-3	40.0163E-12	-1.01841E+0	26.2129E-3
220.472E-3	5.18031E-12	220.185E-3	220.472E-3	63.5302E-3	40.0344E-12	-966.667E-3	25.5569E-3
208.661E-3	4.87004E-12	208.402E-3	208.661E-3	29.6353E-3	39.9622E-12	-977.575E-3	25.9929E-3
196.850E-3	4.66376E-12	196.564E-3	196.850E-3	-90.0674E-3	39.9952E-12	-1.00409E+0	23.3945E-3
185.039E-3	4.37392E-12	184.799E-3	185.039E-3	52.6916E-3	40.0017E-12	-971.334E-3	27.7364E-3
173.228E-3	4.10682E-12	172.980E-3	173.228E-3	-16.0601E-3	40.0165E-12	-1.00043E+0	25.2629E-3
161.417E-3	3.86078E-12	161.146E-3	161.417E-3	124.930E-3	40.0140E-12	-952.470E-3	24.2471E-3
149.606E-3	3.55080E-12	149.324E-3	149.606E-3	-16.5573E-3	39.9880E-12	-990.394E-3	26.0690E-3
137.795E-3	3.32033E-12	137.535E-3	137.795E-3	62.5434E-3	40.0242E-12	-987.396E-3	24.6877E-3
125.984E-3	3.02549E-12	125.765E-3	125.984E-3	-29.6527E-3	39.9427E-12	-1.02535E+0	25.5797E-3
114.173E-3	2.72640E-12	113.933E-3	114.173E-3	12.1812E-3	39.9770E-12	-1.02565E+0	27.3055E-3
102.362E-3	2.45140E-12	102.132E-3	102.362E-3	188.537E-3	40.0544E-12	-960.042E-3	24.1056E-3
90.5512E-3	2.15277E-12	90.3154E-3	90.5512E-3	-67.6288E-3	39.9493E-12	-1.03653E+0	26.9868E-3
78.7402E-3	1.84319E-12	78.4821E-3	78.7402E-3	1.65203E-3	39.9863E-12	-1.02468E+0	25.1328E-3
66.9291E-3	1.54335E-12	66.6132E-3	66.9291E-3	-93.4792E-3	39.9487E-12	-1.06979E+0	29.6897E-3
55.1181E-3	1.28042E-12	54.8406E-3	55.1181E-3	-161.611E-3	40.0467E-12	-1.09852E+0	25.8664E-3
43.3071E-3	976.331E-15	43.0267E-3	43.3071E-3	194.927E-3	40.0219E-12	-994.725E-3	26.1754E-3
31.4961E-3	668.915E-15	31.2024E-3	31.4961E-3	-27.0882E-3	40.0478E-12	-1.05926E+0	26.7852E-3
19.6850E-3	370.857E-15	19.4017E-3	19.6850E-3	-77.6818E-3	39.9716E-12	-1.10210E+0	23.3451E-3
7.87402E-3	78.7905E-15	7.54637E-3	7.87402E-3	113.508E-3	40.0244E-12	-1.06503E+0	23.9526E-3
-3.93701E-3	-226.067E-15	-4.33165E-3	-3.93701E-3	116.469E-3	40.1344E-12	-1.02661E+0	23.8937E-3
-15.7480E-3	-537.811E-15	-16.1173E-3	-15.7480E-3	37.7156E-3	39.9740E-12	-1.02605E+0	24.6002E-3
-27.5591E-3	-835.100E-15	-27.9324E-3	-27.5591E-3	-21.4580E-3	39.9808E-12	-1.05737E+0	24.1689E-3
-39.3701E-3	-1.12381E-12	-39.7019E-3	-39.3701E-3	-102.011E-3	40.0162E-12	-1.10140E+0	27.7785E-3
-51.1811E-3	-1.43200E-12	-51.5567E-3	-51.1811E-3	67.0405E-3	40.0534E-12	-1.07586E+0	24.1656E-3
-62.9921E-3	-1.70992E-12	-63.3225E-3	-62.9921E-3	-12.5643E-3	39.9661E-12	-1.10833E+0	28.2800E-3
-74.8032E-3	-1.95627E-12	-75.1572E-3	-74.8032E-3	64.7487E-3	39.9890E-12	-1.09133E+0	26.2361E-3
-86.6142E-3	-2.10237E-12	-87.0232E-3	-86.6142E-3	-48.3323E-3	40.0038E-12	-1.14748E+0	27.3323E-3
-98.4252E-3	-2.22980E-12	-98.7941E-3	-98.4252E-3	35.6885E-3	39.9804E-12	-1.12298E+0	28.2748E-3
-110.236E-3	-2.33713E-12	-110.649E-3	-110.236E-3	-48.7499E-3	40.0343E-12	-1.14299E+0	24.5654E-3
-122.047E-3	-2.47504E-12	-122.395E-3	-122.047E-3	71.4642E-3	39.9909E-12	-1.12839E+0	26.8002E-3
-133.858E-3	-2.61848E-12	-134.252E-3	-133.858E-3	-76.8748E-3	40.0685E-12	-1.15598E+0	22.9911E-3
-145.669E-3	-2.74175E-12	-146.049E-3	-145.669E-3	-148.251E-3	39.9930E-12	-1.21938E+0	24.6760E-3
-157.480E-3	-2.89632E-12	-157.827E-3	-157.480E-3	58.2460E-3	40.0287E-12	-1.15436E+0	25.3663E-3
-169.291E-3	-3.02950E-12	-169.693E-3	-169.291E-3	-154.924E-3	40.0037E-12	-1.24361E+0	21.2036E-3
-181.102E-3	-3.20270E-12	-181.440E-3	-181.102E-3	-27.1564E-3	40.0340E-12	-1.18900E+0	23.9934E-3
-192.913E-3	-3.32542E-12	-193.248E-3	-192.913E-3	-222.434E-3	40.0174E-12	-1.28196E+0	25.4905E-3
-204.724E-3	-3.46432E-12	-205.079E-3	-204.724E-3	-5.95571E-3	40.0773E-12	-1.23547E+0	26.2374E-3
-216.535E-3	-3.57619E-12	-216.884E-3	-216.535E-3	3.73463E-3	39.9848E-12	-1.22649E+0	27.7709E-3
-228.346E-3	-3.69186E-12	-228.701E-3	-228.346E-3	-39.8923E-3	40.0782E-12	-1.24889E+0	24.6942E-3
-240.157E-3	-3.83687E-12	-240.500E-3	-240.157E-3	-114.895E-3	39.9927E-12	-1.27703E+0	24.8405E-3
-251.969E-3	-3.97332E-12	-252.329E-3	-251.969E-3	117.562E-3	40.0041E-12	-1.22031E+0	26.7456E-3
-263.780E-3	-4.09354E-12	-264.091E-3	-263.780E-3	-222.125E-3	40.0151E-12	-1.32329E+0	25.3872E-3
-275.591E-3	-4.24931E-12	-275.899E-3	-275.591E-3	-58.4845E-3	39.9790E-12	-1.30803E+0	25.6479E-3
-287.402E-3	-4.41458E-12	-287.738E-3	-287.402E-3	170.035E-3	39.9499E-12	-1.24087E+0	29.8656E-3
-299.213E-3	-4.56697E-12	-299.531E-3	-299.213E-3	-8.31409E-3	40.0125E-12	-1.29390E+0	26.1241E-3
-311.024E-3	-4.71099E-12	-311.352E-3	-311.024E-3	-26.8878E-3	39.9984E-12	-1.29197E+0	26.6050E-3
-322.835E-3	-4.90076E-12	-323.146E-3	-322.835E-3	-117.500E-3	40.0901E-12	-1.36075E+0	24.3953E-3
-334.646E-3	-5.02021E-12	-334.918E-3	-334.646E-3	37.4459E-3	39.9674E-12	-1.33407E+0	25.1440E-3
-346.457E-3	-5.13655E-12	-346.735E-3	-346.457E-3	-75.5538E-3	39.9657E-12	-1.36475E+0	28.0843E-3
-358.268E-3	-5.30853E-12	-358.577E-3	-358.268E-3	-6.15813E-3	39.9762E-12	-1.37285E+0	26.9467E-3
-370.079E-3	-5.39285E-12	-370.377E-3	-370.079E-3	-93.8248E-3	39.9659E-12	-1.39897E+0	29.0636E-3
-381.890E-3	-5.58205E-12	-382.149E-3	-381.890E-3	-52.8947E-3	40.0014E-12	-1.40701E+0	25.8826E-3
-393.701E-3	-5.71098E-12	-394.019E-3	-393.701E-3	183.441E-3	40.0897E-12	-1.33915E+0	23.3190E-3
-405.512E-3	-5.83213E-12	-405.828E-3	-405.512E-3	12.7380E-3	39.9431E-12	-1.37717E+0	26.8316E-3
-417.323E-3	-5.99004E-12	-417.635E-3	-417.323E-3	-150.776E-3	39.9768E-12	-1.45244E+0	27.3667E-3
-429.134E-3	-6.22130E-12	-429.438E-3	-429.134E-3	-44.1083E-3	39.9919E-12	-1.42879E+0	25.1310E-3
-440.945E-3	-6.32161E-12	-441.241E-3	-440.945E-3	-148.969E-3	39.9871E-12	-1.45633E+0	26.7652E-3
-452.756E-3	-6.52668E-12	-453.047E-3	-452.756E-3	-151.101E-3	40.0146E-12	-1.48801E+0	26.5746E-3
-464.567E-3	-6.73550E-12	-464.871E-3	-464.567E-3	-883.865E-6	40.0126E-12	-1.46318E+0	24.5422E-3
-476.378E-3	-7.09412E-12	-476.693E-3	-476.378E-3	49.6936E-3	39.9518E-12	-1.45809E+0	28.8647E-3
-488.189E-3	-7.40002E-12	-488.425E-3	-488.189E-3	-140.788E-3	39.9553E-12	-1.52105E+0	27.8667E-3
-500.000E-3	-7.82442E-12	-500.263E-3	-500.000E-3	65.1415E-3	40.0504E-12	-1.49084E+0	26.8617E-3
