Experiment	bias spectroscopy	
Date	30.11.2015 22:44:46	
User		
X (m)	29.4415E-9	
Y (m)	-165.347E-9	
Z (m)	-3.75578E-9	
Z offset (m)	0E+0	
Settling time (s)	30E-3	
Integration time (s)	200E-3	
Z-Ctrl hold	TRUE	
Final Z (m)	-3.75578E-9	
Filter type	None	
Order		
Cutoff frq		
Current (A)	35.5265E-12	
Z (m)	-3.75578E-9	
Phase (deg)	-53.8052E-3	
Amplitude (m)	40.1341E-12	
Frequency Shift (Hz)	-834.734E-3	
Excitation (V)	24.7982E-3	

[DATA]
Bias calc (V)	Current (A)	Applied Voltage measured (V)	Bias (V)	Phase (deg)	Amplitude (m)	Frequency Shift (Hz)	Excitation (V)
1.00000E+0	34.8102E-12	999.339E-3	1.00000E+0	36.9202E-3	39.9788E-12	-810.391E-3	27.2122E-3
988.189E-3	34.0617E-12	987.542E-3	988.189E-3	-98.4329E-3	39.9954E-12	-860.928E-3	24.7099E-3
976.378E-3	33.6253E-12	975.783E-3	976.378E-3	-195.726E-3	40.0744E-12	-903.869E-3	22.9747E-3
964.567E-3	33.2682E-12	963.913E-3	964.567E-3	157.923E-3	40.0252E-12	-793.360E-3	25.0264E-3
952.756E-3	32.8015E-12	952.159E-3	952.756E-3	78.1604E-3	39.8871E-12	-794.117E-3	28.7170E-3
940.945E-3	32.2130E-12	940.318E-3	940.945E-3	-114.484E-3	40.0479E-12	-841.251E-3	23.3917E-3
929.134E-3	31.5875E-12	928.493E-3	929.134E-3	70.3083E-3	39.9604E-12	-801.082E-3	26.3624E-3
917.323E-3	31.3295E-12	916.747E-3	917.323E-3	32.5753E-3	40.0558E-12	-800.915E-3	24.1233E-3
905.512E-3	30.8083E-12	904.893E-3	905.512E-3	162.844E-3	40.0797E-12	-761.259E-3	23.2203E-3
893.701E-3	30.4950E-12	893.128E-3	893.701E-3	160.563E-3	40.0392E-12	-730.937E-3	25.9730E-3
881.890E-3	29.9907E-12	881.287E-3	881.890E-3	84.2591E-3	39.9817E-12	-752.101E-3	28.0704E-3
870.079E-3	29.4749E-12	869.481E-3	870.079E-3	55.3135E-3	39.9643E-12	-756.434E-3	28.9745E-3
858.268E-3	29.1740E-12	857.657E-3	858.268E-3	47.2907E-3	39.9714E-12	-737.136E-3	30.8652E-3
846.457E-3	28.7015E-12	845.831E-3	846.457E-3	-37.2467E-3	39.9976E-12	-778.142E-3	25.4371E-3
834.646E-3	28.2399E-12	834.056E-3	834.646E-3	27.6101E-3	40.0075E-12	-739.968E-3	25.2410E-3
822.835E-3	27.6998E-12	822.241E-3	822.835E-3	-2.48260E-3	39.9664E-12	-744.500E-3	27.7355E-3
811.024E-3	27.3151E-12	810.422E-3	811.024E-3	-89.6840E-3	40.0071E-12	-775.138E-3	26.4135E-3
799.213E-3	26.9364E-12	798.647E-3	799.213E-3	29.7599E-3	40.0020E-12	-748.506E-3	28.0596E-3
787.402E-3	26.5078E-12	786.824E-3	787.402E-3	16.4224E-3	40.0156E-12	-752.122E-3	24.9481E-3
775.591E-3	25.9655E-12	775.031E-3	775.591E-3	53.5033E-3	40.0324E-12	-730.634E-3	24.6360E-3
763.780E-3	25.7388E-12	763.205E-3	763.780E-3	126.558E-3	40.0118E-12	-716.747E-3	27.2506E-3
751.969E-3	25.0690E-12	751.435E-3	751.969E-3	71.1825E-3	40.0072E-12	-714.972E-3	24.1885E-3
740.157E-3	24.5747E-12	739.632E-3	740.157E-3	-75.1409E-3	39.9583E-12	-778.305E-3	26.4914E-3
728.346E-3	24.4844E-12	727.797E-3	728.346E-3	-43.3071E-3	39.9390E-12	-765.461E-3	26.4066E-3
716.535E-3	23.7255E-12	716.006E-3	716.535E-3	138.069E-3	40.0161E-12	-703.435E-3	25.5760E-3
704.724E-3	23.4559E-12	704.314E-3	704.724E-3	-60.2532E-3	39.9996E-12	-734.086E-3	26.0651E-3
692.913E-3	22.9396E-12	692.522E-3	692.913E-3	99.4622E-3	40.0416E-12	-715.083E-3	24.9127E-3
681.102E-3	22.7668E-12	680.744E-3	681.102E-3	-59.9642E-3	40.0262E-12	-764.325E-3	23.7712E-3
669.291E-3	22.3482E-12	668.925E-3	669.291E-3	118.903E-3	39.9759E-12	-711.538E-3	26.8477E-3
657.480E-3	21.7974E-12	657.093E-3	657.480E-3	12.1633E-3	40.0270E-12	-728.914E-3	25.2298E-3
645.669E-3	21.3792E-12	645.278E-3	645.669E-3	23.2782E-3	40.0197E-12	-710.727E-3	24.9909E-3
633.858E-3	21.0080E-12	633.475E-3	633.858E-3	-1.31009E-3	40.0257E-12	-723.736E-3	24.9203E-3
622.047E-3	20.5837E-12	621.671E-3	622.047E-3	-167.719E-3	40.0503E-12	-800.536E-3	24.6398E-3
610.236E-3	19.9803E-12	609.905E-3	610.236E-3	63.4806E-3	39.9805E-12	-733.856E-3	27.2303E-3
598.425E-3	19.6729E-12	598.081E-3	598.425E-3	43.0088E-3	39.9613E-12	-700.245E-3	26.3942E-3
586.614E-3	19.1225E-12	586.272E-3	586.614E-3	212.918E-3	39.9124E-12	-652.446E-3	28.5158E-3
574.803E-3	18.9278E-12	574.460E-3	574.803E-3	-31.1492E-3	39.9975E-12	-699.572E-3	30.0917E-3
562.992E-3	18.5386E-12	562.679E-3	562.992E-3	-68.4328E-3	39.9821E-12	-745.517E-3	24.4769E-3
551.181E-3	17.7656E-12	550.876E-3	551.181E-3	86.4162E-3	40.0268E-12	-674.113E-3	27.1075E-3
539.370E-3	17.5223E-12	539.006E-3	539.370E-3	-114.960E-3	40.0692E-12	-710.270E-3	26.5917E-3
527.559E-3	17.1642E-12	527.225E-3	527.559E-3	-65.5884E-3	40.0411E-12	-745.979E-3	25.8858E-3
515.748E-3	16.6950E-12	515.388E-3	515.748E-3	-38.6623E-3	39.9845E-12	-720.632E-3	30.0229E-3
503.937E-3	16.2330E-12	503.601E-3	503.937E-3	-66.0065E-3	39.9747E-12	-747.935E-3	26.0936E-3
492.126E-3	15.7338E-12	491.779E-3	492.126E-3	112.702E-3	39.9611E-12	-680.434E-3	25.6885E-3
480.315E-3	15.4524E-12	479.971E-3	480.315E-3	-33.0641E-3	40.0165E-12	-731.430E-3	26.6610E-3
468.504E-3	15.0937E-12	468.179E-3	468.504E-3	56.8089E-3	40.0350E-12	-701.665E-3	23.9980E-3
456.693E-3	14.4796E-12	456.358E-3	456.693E-3	127.370E-3	39.9083E-12	-685.037E-3	30.0452E-3
444.882E-3	14.2079E-12	444.596E-3	444.882E-3	-79.0500E-3	40.0279E-12	-756.730E-3	26.4184E-3
433.071E-3	13.7673E-12	432.764E-3	433.071E-3	20.4882E-3	40.0553E-12	-713.513E-3	26.5980E-3
421.260E-3	13.4411E-12	420.956E-3	421.260E-3	-76.8230E-3	40.0337E-12	-776.071E-3	22.3742E-3
409.449E-3	12.8904E-12	409.170E-3	409.449E-3	64.7000E-3	39.9741E-12	-714.207E-3	27.2828E-3
397.638E-3	12.6286E-12	397.323E-3	397.638E-3	-47.3540E-3	40.0228E-12	-737.442E-3	25.6368E-3
385.827E-3	12.2055E-12	385.565E-3	385.827E-3	87.6334E-3	39.9386E-12	-701.637E-3	29.6538E-3
374.016E-3	11.9266E-12	373.727E-3	374.016E-3	-54.4111E-3	40.0594E-12	-730.143E-3	24.5751E-3
362.205E-3	11.4522E-12	361.927E-3	362.205E-3	72.1000E-3	40.0188E-12	-699.884E-3	22.9817E-3
350.394E-3	11.0581E-12	350.176E-3	350.394E-3	53.3195E-3	39.9595E-12	-701.345E-3	26.2100E-3
338.583E-3	10.6928E-12	338.317E-3	338.583E-3	-61.0789E-3	40.1168E-12	-731.109E-3	20.1859E-3
326.772E-3	10.2353E-12	326.528E-3	326.772E-3	-111.903E-3	39.9981E-12	-773.401E-3	24.7922E-3
314.961E-3	9.87685E-12	314.698E-3	314.961E-3	39.4469E-3	39.9949E-12	-721.218E-3	26.4913E-3
303.150E-3	9.40669E-12	302.880E-3	303.150E-3	-64.5757E-3	39.9942E-12	-759.547E-3	27.3180E-3
291.339E-3	9.09376E-12	291.128E-3	291.339E-3	773.351E-6	40.0234E-12	-770.262E-3	24.4248E-3
279.528E-3	8.55644E-12	279.301E-3	279.528E-3	-54.4632E-3	39.8483E-12	-784.008E-3	29.3260E-3
267.717E-3	8.25819E-12	267.484E-3	267.717E-3	156.609E-3	40.0380E-12	-679.724E-3	25.1794E-3
255.906E-3	7.81220E-12	255.657E-3	255.906E-3	-128.381E-3	40.0026E-12	-777.735E-3	25.7534E-3
244.094E-3	7.37517E-12	243.886E-3	244.094E-3	-71.9204E-3	40.0133E-12	-797.317E-3	24.8409E-3
232.283E-3	7.11632E-12	232.026E-3	232.283E-3	66.4263E-3	40.0651E-12	-773.719E-3	28.1846E-3
220.472E-3	6.61016E-12	220.202E-3	220.472E-3	26.8699E-3	39.9977E-12	-779.526E-3	24.4215E-3
208.661E-3	6.26837E-12	208.418E-3	208.661E-3	-39.8715E-3	39.9301E-12	-802.053E-3	30.3058E-3
196.850E-3	5.84102E-12	196.588E-3	196.850E-3	81.7548E-3	40.0496E-12	-749.624E-3	25.0688E-3
185.039E-3	5.46044E-12	184.816E-3	185.039E-3	-9.64583E-3	40.0492E-12	-766.730E-3	25.8558E-3
173.228E-3	5.04549E-12	173.006E-3	173.228E-3	-64.9457E-3	39.9921E-12	-768.865E-3	24.7368E-3
161.417E-3	4.72182E-12	161.170E-3	161.417E-3	-80.9158E-3	40.0144E-12	-810.912E-3	23.2251E-3
149.606E-3	4.27602E-12	149.355E-3	149.606E-3	103.948E-3	39.9803E-12	-780.438E-3	25.1242E-3
137.795E-3	3.87343E-12	137.557E-3	137.795E-3	-52.3255E-3	39.9704E-12	-822.653E-3	27.4590E-3
125.984E-3	3.49987E-12	125.791E-3	125.984E-3	-141.133E-3	40.0336E-12	-871.421E-3	27.2096E-3
114.173E-3	3.12947E-12	113.961E-3	114.173E-3	-75.2752E-6	40.0255E-12	-830.623E-3	24.0816E-3
102.362E-3	2.74282E-12	102.150E-3	102.362E-3	73.9887E-3	40.0198E-12	-801.002E-3	27.1130E-3
90.5512E-3	2.39470E-12	90.3411E-3	90.5512E-3	4.87293E-3	39.9197E-12	-797.159E-3	29.0167E-3
78.7402E-3	2.05777E-12	78.5068E-3	78.7402E-3	-28.8299E-3	40.0742E-12	-817.599E-3	24.5940E-3
66.9291E-3	1.68297E-12	66.6346E-3	66.9291E-3	-1.30051E-3	39.9677E-12	-822.571E-3	27.6025E-3
55.1181E-3	1.33391E-12	54.8693E-3	55.1181E-3	-63.9554E-3	40.0383E-12	-857.509E-3	25.5545E-3
43.3071E-3	968.292E-15	43.0468E-3	43.3071E-3	-69.6293E-3	40.0072E-12	-889.159E-3	26.1546E-3
31.4961E-3	662.756E-15	31.2204E-3	31.4961E-3	-90.8222E-3	40.0237E-12	-899.915E-3	26.8787E-3
19.6850E-3	356.973E-15	19.4255E-3	19.6850E-3	-21.7132E-3	40.0163E-12	-888.527E-3	24.7759E-3
7.87402E-3	58.8999E-15	7.57203E-3	7.87402E-3	50.1998E-3	39.9914E-12	-849.768E-3	29.5919E-3
-3.93701E-3	-217.152E-15	-4.30912E-3	-3.93701E-3	36.3545E-3	40.0716E-12	-859.446E-3	24.2963E-3
-15.7480E-3	-509.565E-15	-16.0968E-3	-15.7480E-3	-9.86126E-3	39.9916E-12	-862.575E-3	25.5104E-3
-27.5591E-3	-795.767E-15	-27.9038E-3	-27.5591E-3	59.7050E-3	40.0425E-12	-842.660E-3	27.7249E-3
-39.3701E-3	-1.07605E-12	-39.6768E-3	-39.3701E-3	-35.5886E-3	40.0079E-12	-880.938E-3	25.2358E-3
-51.1811E-3	-1.36311E-12	-51.5327E-3	-51.1811E-3	-50.4573E-3	39.9732E-12	-916.358E-3	27.2212E-3
-62.9921E-3	-1.66079E-12	-63.2959E-3	-62.9921E-3	-129.069E-3	39.9896E-12	-959.495E-3	23.3846E-3
-74.8032E-3	-1.86690E-12	-75.1371E-3	-74.8032E-3	47.0811E-3	39.9794E-12	-907.014E-3	24.3433E-3
-86.6142E-3	-2.00064E-12	-87.0037E-3	-86.6142E-3	-72.9421E-3	40.0125E-12	-961.542E-3	28.9734E-3
-98.4252E-3	-2.16199E-12	-98.7717E-3	-98.4252E-3	94.8220E-3	39.9532E-12	-900.004E-3	24.6209E-3
-110.236E-3	-2.27838E-12	-110.622E-3	-110.236E-3	-11.4036E-3	39.9908E-12	-919.941E-3	26.0700E-3
-122.047E-3	-2.40681E-12	-122.362E-3	-122.047E-3	39.8683E-3	40.0023E-12	-913.090E-3	28.6562E-3
-133.858E-3	-2.55367E-12	-134.226E-3	-133.858E-3	28.4314E-3	40.0019E-12	-899.336E-3	29.6037E-3
-145.669E-3	-2.67853E-12	-146.030E-3	-145.669E-3	22.8725E-3	40.0492E-12	-939.954E-3	25.0960E-3
-157.480E-3	-2.76608E-12	-157.804E-3	-157.480E-3	-156.916E-3	39.9730E-12	-988.177E-3	31.7563E-3
-169.291E-3	-2.87196E-12	-169.670E-3	-169.291E-3	-38.9801E-3	40.0498E-12	-966.509E-3	27.7550E-3
-181.102E-3	-2.97240E-12	-181.421E-3	-181.102E-3	21.8787E-3	39.9640E-12	-974.077E-3	25.6805E-3
-192.913E-3	-3.08066E-12	-193.228E-3	-192.913E-3	30.3753E-3	39.9520E-12	-994.750E-3	27.2973E-3
-204.724E-3	-3.21524E-12	-205.051E-3	-204.724E-3	-48.7956E-3	40.0331E-12	-1.02557E+0	26.3904E-3
-216.535E-3	-3.29188E-12	-216.861E-3	-216.535E-3	-89.9755E-3	39.9745E-12	-1.04393E+0	28.1848E-3
-228.346E-3	-3.45171E-12	-228.677E-3	-228.346E-3	185.738E-3	40.0321E-12	-967.005E-3	25.9135E-3
-240.157E-3	-3.55341E-12	-240.461E-3	-240.157E-3	42.0558E-3	40.0466E-12	-1.00254E+0	25.3302E-3
-251.969E-3	-3.67902E-12	-252.293E-3	-251.969E-3	-132.241E-3	39.9730E-12	-1.07174E+0	26.6140E-3
-263.780E-3	-3.79850E-12	-264.058E-3	-263.780E-3	15.0242E-3	39.9942E-12	-1.02013E+0	25.5045E-3
-275.591E-3	-3.92619E-12	-275.860E-3	-275.591E-3	-34.0512E-3	40.0143E-12	-1.05672E+0	26.0970E-3
-287.402E-3	-4.03787E-12	-287.704E-3	-287.402E-3	-67.9812E-3	39.9972E-12	-1.06002E+0	27.5368E-3
-299.213E-3	-4.22034E-12	-299.495E-3	-299.213E-3	-101.507E-3	40.0203E-12	-1.08969E+0	25.1428E-3
-311.024E-3	-4.28182E-12	-311.329E-3	-311.024E-3	-84.7181E-3	39.9356E-12	-1.09219E+0	25.1936E-3
-322.835E-3	-4.41446E-12	-323.125E-3	-322.835E-3	72.9793E-3	39.9485E-12	-1.07667E+0	28.7773E-3
-334.646E-3	-4.58024E-12	-334.891E-3	-334.646E-3	15.0111E-3	40.0989E-12	-1.09180E+0	23.6927E-3
-346.457E-3	-4.65165E-12	-346.706E-3	-346.457E-3	-79.2094E-3	40.0008E-12	-1.13343E+0	28.3344E-3
-358.268E-3	-4.81241E-12	-358.540E-3	-358.268E-3	-10.9842E-3	39.9856E-12	-1.13810E+0	28.0797E-3
-370.079E-3	-4.86759E-12	-370.346E-3	-370.079E-3	31.8880E-3	39.9805E-12	-1.12743E+0	29.1462E-3
-381.890E-3	-5.05573E-12	-382.113E-3	-381.890E-3	-164.184E-3	40.0634E-12	-1.19355E+0	27.5870E-3
-393.701E-3	-5.11803E-12	-393.988E-3	-393.701E-3	195.332E-3	40.0018E-12	-1.09390E+0	27.3207E-3
-405.512E-3	-5.23149E-12	-405.807E-3	-405.512E-3	-14.0872E-3	39.9716E-12	-1.11936E+0	24.6119E-3
-417.323E-3	-5.37871E-12	-417.614E-3	-417.323E-3	-95.5793E-3	39.9861E-12	-1.17872E+0	29.8755E-3
-429.134E-3	-5.53000E-12	-429.413E-3	-429.134E-3	33.6995E-3	40.0535E-12	-1.16836E+0	27.7476E-3
-440.945E-3	-5.62703E-12	-441.215E-3	-440.945E-3	-63.7188E-3	40.0284E-12	-1.21049E+0	25.8869E-3
-452.756E-3	-5.70227E-12	-453.026E-3	-452.756E-3	-106.346E-3	39.9486E-12	-1.22393E+0	30.3888E-3
-464.567E-3	-5.84811E-12	-464.849E-3	-464.567E-3	-7.84446E-3	40.0129E-12	-1.21516E+0	23.8591E-3
-476.378E-3	-5.94308E-12	-476.672E-3	-476.378E-3	-119.496E-3	39.9975E-12	-1.26753E+0	29.4476E-3
-488.189E-3	-5.99046E-12	-488.402E-3	-488.189E-3	229.176E-3	39.9140E-12	-1.16683E+0	30.0435E-3
-500.000E-3	-6.12807E-12	-500.248E-3	-500.000E-3	-201.933E-3	40.0793E-12	-1.31265E+0	26.2798E-3
