Experiment	bias spectroscopy	
Date	30.11.2015 22:07:40	
User		
X (m)	29.5263E-9	
Y (m)	-166.334E-9	
Z (m)	-3.75578E-9	
Z offset (m)	0E+0	
Settling time (s)	30E-3	
Integration time (s)	200E-3	
Z-Ctrl hold	TRUE	
Final Z (m)	-3.75578E-9	
Filter type	None	
Order		
Cutoff frq		
Current (A)	65.8612E-12	
Z (m)	-3.75578E-9	
Phase (deg)	-28.7509E-3	
Amplitude (m)	39.9939E-12	
Frequency Shift (Hz)	-682.513E-3	
Excitation (V)	24.1987E-3	

[DATA]
Bias calc (V)	Current (A)	Applied Voltage measured (V)	Bias (V)	Phase (deg)	Amplitude (m)	Frequency Shift (Hz)	Excitation (V)
1.00000E+0	64.4348E-12	999.338E-3	1.00000E+0	-110.194E-3	40.0217E-12	-708.237E-3	23.7808E-3
988.189E-3	64.2983E-12	987.532E-3	988.189E-3	31.1767E-3	40.0479E-12	-662.784E-3	23.7553E-3
976.378E-3	62.8878E-12	975.775E-3	976.378E-3	-51.6213E-3	39.9623E-12	-684.884E-3	25.5537E-3
964.567E-3	62.4442E-12	963.900E-3	964.567E-3	161.439E-3	39.9830E-12	-609.027E-3	27.2376E-3
952.756E-3	62.1693E-12	952.144E-3	952.756E-3	36.1463E-3	40.0328E-12	-621.338E-3	23.5931E-3
940.945E-3	61.4177E-12	940.301E-3	940.945E-3	-107.402E-3	40.0897E-12	-656.677E-3	23.3663E-3
929.134E-3	60.1182E-12	928.478E-3	929.134E-3	14.4152E-3	39.8962E-12	-645.734E-3	23.9691E-3
917.323E-3	59.9215E-12	916.733E-3	917.323E-3	62.2703E-3	39.9697E-12	-602.528E-3	26.5775E-3
905.512E-3	59.3413E-12	904.866E-3	905.512E-3	-140.162E-3	40.0100E-12	-696.460E-3	24.1288E-3
893.701E-3	58.7419E-12	893.119E-3	893.701E-3	44.9237E-3	40.0058E-12	-616.381E-3	26.6457E-3
881.890E-3	58.0044E-12	881.275E-3	881.890E-3	-107.649E-3	40.0558E-12	-647.745E-3	21.6847E-3
870.079E-3	57.6381E-12	869.465E-3	870.079E-3	9.34321E-3	39.9512E-12	-620.810E-3	26.3699E-3
858.268E-3	56.5616E-12	857.633E-3	858.268E-3	53.8162E-3	40.0384E-12	-622.694E-3	22.8354E-3
846.457E-3	56.6712E-12	845.814E-3	846.457E-3	-41.9901E-3	40.0785E-12	-626.022E-3	23.2972E-3
834.646E-3	55.6190E-12	834.043E-3	834.646E-3	-93.5250E-3	39.9785E-12	-641.787E-3	24.2948E-3
822.835E-3	54.7717E-12	822.235E-3	822.835E-3	-8.16725E-3	39.9862E-12	-640.380E-3	24.5283E-3
811.024E-3	54.6651E-12	810.412E-3	811.024E-3	212.005E-3	40.0744E-12	-552.864E-3	24.2636E-3
799.213E-3	53.6454E-12	798.645E-3	799.213E-3	-110.392E-3	40.0020E-12	-636.421E-3	20.6564E-3
787.402E-3	53.2028E-12	786.812E-3	787.402E-3	204.799E-3	40.0210E-12	-546.748E-3	24.6697E-3
775.591E-3	52.4257E-12	775.027E-3	775.591E-3	126.583E-3	39.9147E-12	-528.294E-3	25.8984E-3
763.780E-3	52.0139E-12	763.194E-3	763.780E-3	85.5072E-3	40.0883E-12	-533.694E-3	22.2780E-3
751.969E-3	51.0647E-12	751.420E-3	751.969E-3	72.3450E-3	39.8980E-12	-519.243E-3	23.4497E-3
740.157E-3	50.7525E-12	739.618E-3	740.157E-3	121.070E-3	40.0487E-12	-499.754E-3	21.9402E-3
728.346E-3	49.8054E-12	727.778E-3	728.346E-3	-98.7933E-3	39.9579E-12	-603.496E-3	23.4832E-3
716.535E-3	49.7591E-12	715.987E-3	716.535E-3	-72.7576E-3	40.0879E-12	-610.342E-3	22.7436E-3
704.724E-3	48.6870E-12	704.302E-3	704.724E-3	93.3922E-3	40.0137E-12	-579.703E-3	23.9158E-3
692.913E-3	47.8750E-12	692.495E-3	692.913E-3	94.4006E-3	39.9727E-12	-553.945E-3	27.7268E-3
681.102E-3	47.8355E-12	680.717E-3	681.102E-3	-147.330E-3	40.0865E-12	-615.911E-3	22.1922E-3
669.291E-3	46.5377E-12	668.897E-3	669.291E-3	237.985E-3	39.9083E-12	-502.140E-3	26.3781E-3
657.480E-3	46.3434E-12	657.058E-3	657.480E-3	-145.885E-3	39.9863E-12	-617.352E-3	25.0573E-3
645.669E-3	45.0373E-12	645.258E-3	645.669E-3	160.730E-3	40.0097E-12	-524.417E-3	23.3194E-3
633.858E-3	44.4072E-12	633.463E-3	633.858E-3	33.4858E-3	40.0484E-12	-563.817E-3	27.9667E-3
622.047E-3	43.7358E-12	621.652E-3	622.047E-3	52.5044E-3	40.0055E-12	-542.687E-3	24.5555E-3
610.236E-3	43.4801E-12	609.884E-3	610.236E-3	-94.5605E-3	39.9508E-12	-635.015E-3	30.0815E-3
598.425E-3	42.4749E-12	598.075E-3	598.425E-3	-77.4691E-3	40.0370E-12	-601.583E-3	22.2165E-3
586.614E-3	42.0228E-12	586.266E-3	586.614E-3	2.52036E-3	39.9506E-12	-584.032E-3	24.3753E-3
574.803E-3	40.5733E-12	574.443E-3	574.803E-3	-23.3044E-3	39.9741E-12	-587.696E-3	25.1613E-3
562.992E-3	40.1921E-12	562.665E-3	562.992E-3	-25.7737E-3	40.0216E-12	-600.691E-3	25.8518E-3
551.181E-3	39.6819E-12	550.854E-3	551.181E-3	52.2081E-3	40.0242E-12	-556.880E-3	22.9876E-3
539.370E-3	39.0910E-12	538.990E-3	539.370E-3	-30.7266E-3	40.0166E-12	-581.302E-3	25.6860E-3
527.559E-3	38.1646E-12	527.207E-3	527.559E-3	-99.3261E-3	40.0393E-12	-600.633E-3	24.2889E-3
515.748E-3	37.5718E-12	515.376E-3	515.748E-3	5.48971E-3	39.9591E-12	-554.068E-3	26.7752E-3
503.937E-3	36.7084E-12	503.585E-3	503.937E-3	15.3530E-3	40.0378E-12	-543.954E-3	26.0257E-3
492.126E-3	36.0474E-12	491.755E-3	492.126E-3	45.9546E-3	40.0322E-12	-541.102E-3	26.5282E-3
480.315E-3	35.3000E-12	479.940E-3	480.315E-3	-157.046E-3	40.0219E-12	-627.064E-3	24.6257E-3
468.504E-3	34.4205E-12	468.147E-3	468.504E-3	177.122E-3	39.9940E-12	-523.069E-3	24.6322E-3
456.693E-3	33.5999E-12	456.334E-3	456.693E-3	-64.9225E-3	40.0106E-12	-607.900E-3	25.7970E-3
444.882E-3	32.9506E-12	444.575E-3	444.882E-3	36.6326E-3	39.9987E-12	-566.107E-3	25.3865E-3
433.071E-3	32.1807E-12	432.742E-3	433.071E-3	-33.4867E-3	40.0551E-12	-582.514E-3	25.7839E-3
421.260E-3	31.3146E-12	420.932E-3	421.260E-3	-89.1598E-3	40.0212E-12	-612.385E-3	25.5009E-3
409.449E-3	30.5178E-12	409.159E-3	409.449E-3	204.339E-3	40.0318E-12	-499.036E-3	23.8068E-3
397.638E-3	29.8278E-12	397.308E-3	397.638E-3	-75.5291E-3	40.0076E-12	-596.753E-3	26.4665E-3
385.827E-3	28.9319E-12	385.555E-3	385.827E-3	-47.2543E-3	39.9423E-12	-609.863E-3	29.2260E-3
374.016E-3	28.3543E-12	373.706E-3	374.016E-3	-9.96942E-3	40.0755E-12	-589.072E-3	24.1946E-3
362.205E-3	27.2612E-12	361.908E-3	362.205E-3	-21.4249E-3	39.8834E-12	-582.153E-3	30.3253E-3
350.394E-3	26.5749E-12	350.161E-3	350.394E-3	-92.1335E-3	40.0255E-12	-614.555E-3	23.5943E-3
338.583E-3	25.3798E-12	338.293E-3	338.583E-3	41.7466E-3	39.9205E-12	-590.417E-3	26.3997E-3
326.772E-3	24.9550E-12	326.512E-3	326.772E-3	-140.507E-3	40.0267E-12	-641.069E-3	26.3125E-3
314.961E-3	24.2153E-12	314.676E-3	314.961E-3	-39.4212E-3	40.0198E-12	-604.278E-3	23.5854E-3
303.150E-3	23.1905E-12	302.859E-3	303.150E-3	-101.567E-3	39.9900E-12	-656.303E-3	24.8518E-3
291.339E-3	22.0693E-12	291.101E-3	291.339E-3	36.7051E-3	39.9475E-12	-591.157E-3	27.2892E-3
279.528E-3	21.1825E-12	279.269E-3	279.528E-3	-61.0894E-3	39.9177E-12	-626.124E-3	26.8730E-3
267.717E-3	20.4474E-12	267.464E-3	267.717E-3	-62.9217E-3	40.0178E-12	-650.065E-3	26.5334E-3
255.906E-3	19.4384E-12	255.640E-3	255.906E-3	-22.5357E-3	39.9552E-12	-636.437E-3	26.2209E-3
244.094E-3	18.6209E-12	243.864E-3	244.094E-3	-80.1876E-3	39.9941E-12	-675.166E-3	27.8227E-3
232.283E-3	17.5722E-12	232.010E-3	232.283E-3	64.1638E-3	40.0046E-12	-647.715E-3	27.1266E-3
220.472E-3	16.7427E-12	220.180E-3	220.472E-3	46.1373E-3	39.9857E-12	-666.302E-3	26.5140E-3
208.661E-3	15.8043E-12	208.393E-3	208.661E-3	47.9944E-3	40.0556E-12	-653.029E-3	25.9361E-3
196.850E-3	14.9489E-12	196.569E-3	196.850E-3	15.2142E-3	40.0280E-12	-670.766E-3	26.3935E-3
185.039E-3	13.7193E-12	184.797E-3	185.039E-3	250.947E-3	39.8869E-12	-581.003E-3	30.3961E-3
173.228E-3	12.8730E-12	172.986E-3	173.228E-3	18.7224E-3	40.0308E-12	-645.263E-3	24.7841E-3
161.417E-3	11.8989E-12	161.152E-3	161.417E-3	33.6229E-3	40.0222E-12	-639.294E-3	26.3669E-3
149.606E-3	10.7379E-12	149.330E-3	149.606E-3	-44.3105E-3	39.9488E-12	-665.889E-3	27.2927E-3
137.795E-3	9.71807E-12	137.545E-3	137.795E-3	-48.1016E-3	39.9630E-12	-689.340E-3	25.9691E-3
125.984E-3	8.83273E-12	125.785E-3	125.984E-3	24.8210E-3	40.0734E-12	-669.257E-3	23.0549E-3
114.173E-3	7.82636E-12	113.943E-3	114.173E-3	-74.1510E-3	39.9693E-12	-721.203E-3	27.0208E-3
102.362E-3	6.93177E-12	102.141E-3	102.362E-3	-74.9433E-3	39.9831E-12	-730.400E-3	25.8632E-3
90.5512E-3	6.07956E-12	90.3261E-3	90.5512E-3	49.4782E-3	40.0317E-12	-690.037E-3	28.8601E-3
78.7402E-3	5.20799E-12	78.5016E-3	78.7402E-3	-54.9193E-3	39.9896E-12	-737.239E-3	26.2476E-3
66.9291E-3	4.40411E-12	66.6303E-3	66.9291E-3	-4.62166E-3	40.0075E-12	-722.534E-3	26.5243E-3
55.1181E-3	3.57480E-12	54.8566E-3	55.1181E-3	43.0991E-3	39.8754E-12	-702.386E-3	30.3380E-3
43.3071E-3	2.76799E-12	43.0438E-3	43.3071E-3	-4.23852E-3	40.0657E-12	-758.027E-3	23.2759E-3
31.4961E-3	1.98168E-12	31.2105E-3	31.4961E-3	7.03110E-3	39.9938E-12	-745.817E-3	27.5555E-3
19.6850E-3	1.22706E-12	19.4055E-3	19.6850E-3	-18.4886E-3	39.9260E-12	-746.327E-3	25.1353E-3
7.87402E-3	443.453E-15	7.56417E-3	7.87402E-3	-108.289E-3	40.0784E-12	-802.098E-3	24.3587E-3
-3.93701E-3	-342.347E-15	-4.32300E-3	-3.93701E-3	130.939E-3	40.0082E-12	-723.701E-3	26.1389E-3
-15.7480E-3	-1.18000E-12	-16.1071E-3	-15.7480E-3	-90.6429E-3	39.9437E-12	-811.590E-3	28.5822E-3
-27.5591E-3	-2.01230E-12	-27.9216E-3	-27.5591E-3	18.2698E-3	39.9682E-12	-800.943E-3	28.9353E-3
-39.3701E-3	-2.75816E-12	-39.6869E-3	-39.3701E-3	-96.1823E-3	40.0335E-12	-845.099E-3	26.9696E-3
-51.1811E-3	-3.44839E-12	-51.5393E-3	-51.1811E-3	1.46540E-3	39.9823E-12	-804.751E-3	27.9431E-3
-62.9921E-3	-4.19193E-12	-63.3152E-3	-62.9921E-3	61.9812E-3	39.9973E-12	-779.654E-3	26.9533E-3
-74.8032E-3	-4.69783E-12	-75.1558E-3	-74.8032E-3	-37.6533E-3	39.9988E-12	-802.035E-3	28.0909E-3
-86.6142E-3	-5.05036E-12	-87.0188E-3	-86.6142E-3	-106.708E-3	40.0024E-12	-849.940E-3	26.9500E-3
-98.4252E-3	-5.41033E-12	-98.7963E-3	-98.4252E-3	-28.4437E-3	40.0169E-12	-842.434E-3	29.3680E-3
-110.236E-3	-5.76362E-12	-110.650E-3	-110.236E-3	-60.5955E-3	40.0870E-12	-885.626E-3	24.5480E-3
-122.047E-3	-5.90492E-12	-122.393E-3	-122.047E-3	89.2676E-3	39.9499E-12	-820.955E-3	26.0982E-3
-133.858E-3	-6.17320E-12	-134.248E-3	-133.858E-3	-24.6942E-3	40.0847E-12	-852.030E-3	25.9526E-3
-145.669E-3	-6.42840E-12	-146.046E-3	-145.669E-3	-102.275E-3	39.9272E-12	-890.086E-3	27.8133E-3
-157.480E-3	-6.57234E-12	-157.826E-3	-157.480E-3	-93.3505E-3	40.0418E-12	-921.318E-3	27.5754E-3
-169.291E-3	-6.77857E-12	-169.695E-3	-169.291E-3	-40.2180E-3	40.0614E-12	-896.118E-3	25.3785E-3
-181.102E-3	-6.94757E-12	-181.437E-3	-181.102E-3	-66.4854E-3	39.9185E-12	-930.732E-3	30.1760E-3
-192.913E-3	-7.25352E-12	-193.239E-3	-192.913E-3	88.4514E-3	39.9909E-12	-888.786E-3	29.2099E-3
-204.724E-3	-7.50827E-12	-205.068E-3	-204.724E-3	-8.18980E-3	40.0767E-12	-915.887E-3	22.8336E-3
-216.535E-3	-7.85321E-12	-216.869E-3	-216.535E-3	69.7143E-3	40.0412E-12	-891.428E-3	24.5938E-3
-228.346E-3	-8.12360E-12	-228.682E-3	-228.346E-3	-16.4889E-3	39.9227E-12	-904.685E-3	28.6573E-3
-240.157E-3	-8.41087E-12	-240.492E-3	-240.157E-3	-25.3870E-3	40.0307E-12	-921.412E-3	25.9996E-3
-251.969E-3	-8.68321E-12	-252.314E-3	-251.969E-3	-63.3489E-3	40.0512E-12	-964.667E-3	28.5366E-3
-263.780E-3	-8.88363E-12	-264.091E-3	-263.780E-3	-73.4123E-3	40.0070E-12	-972.058E-3	26.0395E-3
-275.591E-3	-9.20442E-12	-275.894E-3	-275.591E-3	112.534E-3	40.0106E-12	-915.780E-3	27.4442E-3
-287.402E-3	-9.45824E-12	-287.728E-3	-287.402E-3	-58.8099E-3	39.9973E-12	-958.151E-3	27.4071E-3
-299.213E-3	-9.76009E-12	-299.519E-3	-299.213E-3	-168.742E-3	39.9318E-12	-1.00992E+0	28.9989E-3
-311.024E-3	-10.1453E-12	-311.350E-3	-311.024E-3	-948.873E-6	40.0527E-12	-983.585E-3	26.3494E-3
-322.835E-3	-10.3651E-12	-323.140E-3	-322.835E-3	-26.2411E-3	40.0106E-12	-1.01978E+0	25.4345E-3
-334.646E-3	-10.7599E-12	-334.913E-3	-334.646E-3	33.8483E-3	39.9752E-12	-1.01727E+0	27.0076E-3
-346.457E-3	-10.9760E-12	-346.730E-3	-346.457E-3	-144.175E-3	39.9883E-12	-1.04940E+0	27.5989E-3
-358.268E-3	-11.3840E-12	-358.561E-3	-358.268E-3	3.93904E-3	39.9786E-12	-1.03193E+0	27.2703E-3
-370.079E-3	-11.7004E-12	-370.367E-3	-370.079E-3	-52.9662E-3	39.9568E-12	-1.06310E+0	28.6417E-3
-381.890E-3	-11.9877E-12	-382.129E-3	-381.890E-3	-36.1502E-3	39.9651E-12	-1.04346E+0	27.3541E-3
-393.701E-3	-12.3080E-12	-394.003E-3	-393.701E-3	21.0360E-3	39.9980E-12	-1.03059E+0	27.9225E-3
-405.512E-3	-12.7165E-12	-405.805E-3	-405.512E-3	-94.6105E-3	40.0140E-12	-1.09679E+0	28.6067E-3
-417.323E-3	-12.8647E-12	-417.615E-3	-417.323E-3	-42.6413E-3	39.9965E-12	-1.09582E+0	29.1082E-3
-429.134E-3	-13.3579E-12	-429.423E-3	-429.134E-3	-25.5777E-3	39.9883E-12	-1.10222E+0	26.6659E-3
-440.945E-3	-13.5883E-12	-441.228E-3	-440.945E-3	-152.095E-3	39.9841E-12	-1.16669E+0	27.1224E-3
-452.756E-3	-13.8984E-12	-453.033E-3	-452.756E-3	-42.6766E-3	40.0164E-12	-1.14498E+0	25.6224E-3
-464.567E-3	-14.1296E-12	-464.855E-3	-464.567E-3	-2.42280E-3	39.9969E-12	-1.11796E+0	25.9326E-3
-476.378E-3	-14.3871E-12	-476.683E-3	-476.378E-3	-81.3813E-3	40.0521E-12	-1.15448E+0	24.4772E-3
-488.189E-3	-14.3805E-12	-488.412E-3	-488.189E-3	37.5779E-3	39.9866E-12	-1.12329E+0	29.0462E-3
-500.000E-3	-14.8230E-12	-500.245E-3	-500.000E-3	-78.1466E-3	40.0250E-12	-1.17051E+0	24.9863E-3
