Experiment	bias spectroscopy	
Date	01.12.2015 07:28:13	
User		
X (m)	281.424E-9	
Y (m)	-137.918E-9	
Z (m)	-4.07703E-9	
Z offset (m)	0E+0	
Settling time (s)	30E-3	
Integration time (s)	200E-3	
Z-Ctrl hold	TRUE	
Final Z (m)	-4.07703E-9	
Filter type	None	
Order		
Cutoff frq		
Current (A)	15.2741E-12	
Z (m)	-4.07703E-9	
Phase (deg)	83.9269E-3	
Amplitude (m)	39.8813E-12	
Frequency Shift (Hz)	-1.055E+0	
Excitation (V)	45.2875E-3	

[DATA]
Bias calc (V)	Current (A)	Applied Voltage measured (V)	Bias (V)	Phase (deg)	Amplitude (m)	Frequency Shift (Hz)	Excitation (V)
1.00000E+0	15.3229E-12	999.343E-3	1.00000E+0	-161.682E-6	39.9502E-12	-1.09115E+0	26.2183E-3
988.189E-3	15.2201E-12	987.552E-3	988.189E-3	-68.3282E-3	40.0000E-12	-1.10969E+0	25.8080E-3
976.378E-3	15.0643E-12	975.778E-3	976.378E-3	86.1152E-3	40.0612E-12	-1.02982E+0	26.4794E-3
964.567E-3	15.2505E-12	963.904E-3	964.567E-3	-2.61172E-3	40.0115E-12	-1.06818E+0	25.6287E-3
952.756E-3	14.8899E-12	952.154E-3	952.756E-3	87.4388E-3	39.9683E-12	-1.04141E+0	28.6578E-3
940.945E-3	14.8645E-12	940.320E-3	940.945E-3	22.6057E-3	40.0807E-12	-1.04051E+0	23.5072E-3
929.134E-3	14.5226E-12	928.500E-3	929.134E-3	91.8803E-3	39.9895E-12	-1.02812E+0	25.2193E-3
917.323E-3	14.4508E-12	916.755E-3	917.323E-3	111.034E-3	39.9620E-12	-1.01125E+0	27.9511E-3
905.512E-3	14.3974E-12	904.898E-3	905.512E-3	25.0883E-3	39.9941E-12	-1.04675E+0	23.8518E-3
893.701E-3	14.2646E-12	893.132E-3	893.701E-3	52.5883E-3	39.9667E-12	-1.03586E+0	28.0115E-3
881.890E-3	14.1249E-12	881.288E-3	881.890E-3	87.9954E-3	40.0503E-12	-994.972E-3	24.9656E-3
870.079E-3	13.9450E-12	869.490E-3	870.079E-3	65.2973E-3	40.0082E-12	-1.01233E+0	24.3104E-3
858.268E-3	13.7222E-12	857.675E-3	858.268E-3	-7.90797E-3	39.9644E-12	-1.02768E+0	25.7213E-3
846.457E-3	13.6402E-12	845.835E-3	846.457E-3	29.7142E-3	40.0061E-12	-1.01761E+0	24.7672E-3
834.646E-3	13.2804E-12	834.067E-3	834.646E-3	80.6045E-3	39.9156E-12	-974.489E-3	26.8073E-3
822.835E-3	13.3926E-12	822.255E-3	822.835E-3	194.105E-3	40.0195E-12	-932.556E-3	27.8586E-3
811.024E-3	13.2364E-12	810.433E-3	811.024E-3	79.1721E-3	40.0466E-12	-929.637E-3	25.1196E-3
799.213E-3	12.9273E-12	798.658E-3	799.213E-3	-38.4630E-3	39.9956E-12	-965.874E-3	27.8869E-3
787.402E-3	12.8271E-12	786.823E-3	787.402E-3	-38.2614E-3	40.0285E-12	-973.947E-3	28.4618E-3
775.591E-3	12.5803E-12	775.040E-3	775.591E-3	-174.620E-3	39.8703E-12	-1.02644E+0	27.8429E-3
763.780E-3	12.7280E-12	763.215E-3	763.780E-3	116.652E-3	39.9918E-12	-961.602E-3	27.2524E-3
751.969E-3	12.4648E-12	751.439E-3	751.969E-3	-124.192E-3	39.9401E-12	-1.02100E+0	27.4799E-3
740.157E-3	12.2740E-12	739.636E-3	740.157E-3	-18.1649E-3	40.0625E-12	-1.00352E+0	24.5646E-3
728.346E-3	12.2061E-12	727.794E-3	728.346E-3	74.2642E-3	40.0365E-12	-959.159E-3	25.0831E-3
716.535E-3	12.0577E-12	716.016E-3	716.535E-3	119.167E-3	40.0064E-12	-927.246E-3	23.2972E-3
704.724E-3	11.7841E-12	704.315E-3	704.724E-3	-114.296E-3	39.9787E-12	-993.929E-3	28.8713E-3
692.913E-3	11.7098E-12	692.517E-3	692.913E-3	-11.7676E-3	40.0686E-12	-954.262E-3	24.9815E-3
681.102E-3	11.5246E-12	680.742E-3	681.102E-3	31.6851E-3	39.9771E-12	-947.340E-3	27.0234E-3
669.291E-3	11.2658E-12	668.920E-3	669.291E-3	-91.2347E-3	39.9253E-12	-986.644E-3	27.6443E-3
657.480E-3	11.2964E-12	657.070E-3	657.480E-3	133.969E-3	40.0445E-12	-915.466E-3	23.2759E-3
645.669E-3	11.0093E-12	645.273E-3	645.669E-3	77.8584E-3	39.9368E-12	-898.572E-3	28.8580E-3
633.858E-3	10.9189E-12	633.465E-3	633.858E-3	-101.663E-3	40.0434E-12	-960.679E-3	23.5263E-3
622.047E-3	10.7845E-12	621.665E-3	622.047E-3	-184.435E-3	40.0253E-12	-1.00166E+0	23.6926E-3
610.236E-3	10.4536E-12	609.904E-3	610.236E-3	-56.2372E-3	39.9232E-12	-986.344E-3	28.0573E-3
598.425E-3	10.5978E-12	598.085E-3	598.425E-3	46.0201E-3	39.9840E-12	-956.114E-3	26.1579E-3
586.614E-3	10.3766E-12	586.279E-3	586.614E-3	75.1817E-3	40.0328E-12	-944.794E-3	27.5003E-3
574.803E-3	10.0719E-12	574.462E-3	574.803E-3	-28.1400E-3	39.9830E-12	-947.409E-3	24.5804E-3
562.992E-3	9.89640E-12	562.684E-3	562.992E-3	-21.2246E-3	39.9903E-12	-955.435E-3	24.8301E-3
551.181E-3	9.72703E-12	550.867E-3	551.181E-3	2.71297E-3	39.9755E-12	-947.076E-3	28.4047E-3
539.370E-3	9.56030E-12	539.002E-3	539.370E-3	-136.757E-3	40.0392E-12	-999.168E-3	25.0045E-3
527.559E-3	9.44071E-12	527.215E-3	527.559E-3	138.096E-3	39.9581E-12	-904.941E-3	28.1496E-3
515.748E-3	9.20849E-12	515.384E-3	515.748E-3	-71.4673E-3	40.0509E-12	-946.641E-3	26.0807E-3
503.937E-3	9.16783E-12	503.601E-3	503.937E-3	-13.6065E-3	39.9843E-12	-929.003E-3	27.0403E-3
492.126E-3	8.93808E-12	491.771E-3	492.126E-3	22.1071E-3	39.9803E-12	-931.665E-3	26.9847E-3
480.315E-3	8.79492E-12	479.966E-3	480.315E-3	-50.9395E-3	40.0419E-12	-949.982E-3	23.7876E-3
468.504E-3	8.53192E-12	468.171E-3	468.504E-3	162.286E-3	39.8955E-12	-869.446E-3	26.2584E-3
456.693E-3	8.34531E-12	456.356E-3	456.693E-3	-140.390E-3	40.1045E-12	-956.241E-3	24.0702E-3
444.882E-3	8.12484E-12	444.591E-3	444.882E-3	83.9975E-3	39.9355E-12	-923.246E-3	26.3725E-3
433.071E-3	8.05386E-12	432.756E-3	433.071E-3	-18.1381E-3	40.0512E-12	-929.037E-3	24.2175E-3
421.260E-3	7.91609E-12	420.945E-3	421.260E-3	-120.417E-3	40.0938E-12	-985.030E-3	24.8505E-3
409.449E-3	7.58826E-12	409.162E-3	409.449E-3	-40.1265E-3	39.9495E-12	-963.274E-3	27.6649E-3
397.638E-3	7.33253E-12	397.318E-3	397.638E-3	-65.0797E-3	39.9747E-12	-995.444E-3	26.0228E-3
385.827E-3	7.29656E-12	385.556E-3	385.827E-3	103.378E-3	39.9555E-12	-928.630E-3	26.3977E-3
374.016E-3	7.05105E-12	373.710E-3	374.016E-3	64.5082E-3	40.0220E-12	-937.004E-3	25.7047E-3
362.205E-3	6.86574E-12	361.916E-3	362.205E-3	88.4382E-3	39.9933E-12	-925.217E-3	26.0854E-3
350.394E-3	6.77056E-12	350.160E-3	350.394E-3	-163.849E-3	40.0018E-12	-1.01207E+0	26.0951E-3
338.583E-3	6.61108E-12	338.306E-3	338.583E-3	128.481E-3	40.0178E-12	-936.801E-3	25.2964E-3
326.772E-3	6.32278E-12	326.526E-3	326.772E-3	57.7935E-3	39.9966E-12	-966.639E-3	23.9003E-3
314.961E-3	6.04877E-12	314.686E-3	314.961E-3	-7.24436E-3	39.8947E-12	-969.716E-3	27.0882E-3
303.150E-3	5.98483E-12	302.874E-3	303.150E-3	33.3714E-3	39.9699E-12	-943.529E-3	26.1784E-3
291.339E-3	5.80102E-12	291.121E-3	291.339E-3	-60.9640E-3	39.9831E-12	-987.940E-3	25.0113E-3
279.528E-3	5.65515E-12	279.292E-3	279.528E-3	90.0954E-3	39.9976E-12	-935.709E-3	25.6474E-3
267.717E-3	5.45592E-12	267.477E-3	267.717E-3	-90.4228E-3	40.0243E-12	-968.445E-3	26.2680E-3
255.906E-3	5.25145E-12	255.664E-3	255.906E-3	-37.9538E-3	39.9201E-12	-981.492E-3	31.0083E-3
244.094E-3	5.03122E-12	243.888E-3	244.094E-3	38.8255E-3	40.0189E-12	-942.107E-3	27.5013E-3
232.283E-3	4.86201E-12	232.035E-3	232.283E-3	27.8330E-3	40.0431E-12	-954.735E-3	24.6200E-3
220.472E-3	4.63545E-12	220.203E-3	220.472E-3	-92.3672E-3	39.9855E-12	-1.00961E+0	25.9956E-3
208.661E-3	4.48609E-12	208.424E-3	208.661E-3	-41.2616E-3	40.0253E-12	-998.273E-3	24.5135E-3
196.850E-3	4.20459E-12	196.588E-3	196.850E-3	-38.8792E-3	39.9507E-12	-1.00325E+0	26.6476E-3
185.039E-3	4.03915E-12	184.824E-3	185.039E-3	-89.9557E-3	39.9338E-12	-1.05171E+0	27.8220E-3
173.228E-3	3.83838E-12	173.014E-3	173.228E-3	41.8278E-3	40.0409E-12	-1.02199E+0	26.7335E-3
161.417E-3	3.58233E-12	161.183E-3	161.417E-3	-21.7627E-3	40.0350E-12	-1.04499E+0	22.8407E-3
149.606E-3	3.37624E-12	149.349E-3	149.606E-3	190.638E-3	40.0522E-12	-961.489E-3	25.7209E-3
137.795E-3	3.07713E-12	137.559E-3	137.795E-3	36.1709E-3	40.0004E-12	-959.127E-3	26.7784E-3
125.984E-3	2.82269E-12	125.797E-3	125.984E-3	-106.457E-3	39.9921E-12	-1.01512E+0	27.6519E-3
114.173E-3	2.60560E-12	113.960E-3	114.173E-3	42.8854E-3	40.0242E-12	-978.187E-3	26.1446E-3
102.362E-3	2.32861E-12	102.154E-3	102.362E-3	-74.8018E-3	39.9685E-12	-1.04057E+0	28.2218E-3
90.5512E-3	2.08639E-12	90.3488E-3	90.5512E-3	10.9839E-3	40.0691E-12	-1.04340E+0	24.3589E-3
78.7402E-3	1.77943E-12	78.5183E-3	78.7402E-3	-102.782E-3	40.0101E-12	-1.09601E+0	25.9439E-3
66.9291E-3	1.53786E-12	66.6456E-3	66.9291E-3	68.2294E-3	40.0522E-12	-1.04868E+0	28.1372E-3
55.1181E-3	1.24402E-12	54.8694E-3	55.1181E-3	20.4415E-3	39.9807E-12	-1.06029E+0	27.2854E-3
43.3071E-3	975.672E-15	43.0523E-3	43.3071E-3	-23.0411E-3	40.0247E-12	-1.06912E+0	26.8651E-3
31.4961E-3	669.799E-15	31.2293E-3	31.4961E-3	-61.0134E-3	39.8944E-12	-1.08661E+0	29.7745E-3
19.6850E-3	388.296E-15	19.4185E-3	19.6850E-3	-48.8254E-3	40.0148E-12	-1.10300E+0	24.0783E-3
7.87402E-3	81.3185E-15	7.55287E-3	7.87402E-3	-33.0990E-3	40.0298E-12	-1.11504E+0	25.2974E-3
-3.93701E-3	-218.104E-15	-4.33132E-3	-3.93701E-3	22.8871E-3	40.0430E-12	-1.06423E+0	22.4296E-3
-15.7480E-3	-560.378E-15	-16.1156E-3	-15.7480E-3	-54.7794E-3	40.0499E-12	-1.07981E+0	24.8174E-3
-27.5591E-3	-851.494E-15	-27.9257E-3	-27.5591E-3	-127.925E-3	39.8925E-12	-1.10531E+0	27.6322E-3
-39.3701E-3	-1.15933E-12	-39.6876E-3	-39.3701E-3	-18.4325E-3	39.9790E-12	-1.10591E+0	25.4240E-3
-51.1811E-3	-1.46564E-12	-51.5481E-3	-51.1811E-3	55.9162E-3	39.9680E-12	-1.05874E+0	23.7912E-3
-62.9921E-3	-1.77769E-12	-63.3205E-3	-62.9921E-3	-50.3170E-3	39.9820E-12	-1.09831E+0	26.2914E-3
-74.8032E-3	-1.96966E-12	-75.1550E-3	-74.8032E-3	-203.110E-3	40.0750E-12	-1.18889E+0	22.7842E-3
-86.6142E-3	-2.11787E-12	-87.0140E-3	-86.6142E-3	201.184E-3	40.0300E-12	-1.06219E+0	23.8945E-3
-98.4252E-3	-2.19488E-12	-98.7793E-3	-98.4252E-3	-71.3978E-3	40.0670E-12	-1.14257E+0	25.9339E-3
-110.236E-3	-2.33479E-12	-110.640E-3	-110.236E-3	-107.117E-3	39.9430E-12	-1.19469E+0	29.0929E-3
-122.047E-3	-2.48314E-12	-122.385E-3	-122.047E-3	41.1481E-3	40.0605E-12	-1.16703E+0	24.7403E-3
-133.858E-3	-2.62050E-12	-134.234E-3	-133.858E-3	-10.4171E-3	40.0012E-12	-1.16710E+0	25.3577E-3
-145.669E-3	-2.77189E-12	-146.035E-3	-145.669E-3	-48.0625E-3	39.9756E-12	-1.19067E+0	29.6673E-3
-157.480E-3	-2.94543E-12	-157.814E-3	-157.480E-3	79.5271E-3	40.0547E-12	-1.13686E+0	25.3357E-3
-169.291E-3	-3.02384E-12	-169.678E-3	-169.291E-3	-9.14126E-3	39.9869E-12	-1.16647E+0	26.2861E-3
-181.102E-3	-3.21901E-12	-181.419E-3	-181.102E-3	-100.315E-3	39.9825E-12	-1.21787E+0	27.0928E-3
-192.913E-3	-3.32321E-12	-193.226E-3	-192.913E-3	7.20035E-3	40.0455E-12	-1.16494E+0	24.5686E-3
-204.724E-3	-3.42009E-12	-205.069E-3	-204.724E-3	-204.362E-3	39.9980E-12	-1.28523E+0	27.2581E-3
-216.535E-3	-3.56966E-12	-216.863E-3	-216.535E-3	95.1719E-3	40.0077E-12	-1.20388E+0	25.5171E-3
-228.346E-3	-3.70932E-12	-228.687E-3	-228.346E-3	-151.203E-3	39.9490E-12	-1.28226E+0	28.4470E-3
-240.157E-3	-3.83887E-12	-240.491E-3	-240.157E-3	57.2714E-3	40.0372E-12	-1.23719E+0	27.5187E-3
-251.969E-3	-4.01806E-12	-252.311E-3	-251.969E-3	-85.6953E-3	39.9380E-12	-1.29028E+0	28.7899E-3
-263.780E-3	-4.22309E-12	-264.080E-3	-263.780E-3	62.0954E-3	40.0489E-12	-1.26478E+0	26.9456E-3
-275.591E-3	-4.27235E-12	-275.884E-3	-275.591E-3	-49.6601E-3	39.9510E-12	-1.29056E+0	25.3336E-3
-287.402E-3	-4.50248E-12	-287.719E-3	-287.402E-3	-22.0913E-3	39.9991E-12	-1.28323E+0	28.1114E-3
-299.213E-3	-4.62224E-12	-299.519E-3	-299.213E-3	-99.8938E-3	39.9372E-12	-1.32538E+0	28.9537E-3
-311.024E-3	-4.81643E-12	-311.349E-3	-311.024E-3	-20.2859E-3	40.0779E-12	-1.32427E+0	26.2378E-3
-322.835E-3	-4.90189E-12	-323.140E-3	-322.835E-3	98.2807E-3	39.8830E-12	-1.28100E+0	32.2378E-3
-334.646E-3	-5.11144E-12	-334.913E-3	-334.646E-3	83.1388E-3	40.0865E-12	-1.28116E+0	25.0253E-3
-346.457E-3	-5.17203E-12	-346.735E-3	-346.457E-3	-201.175E-3	39.9414E-12	-1.38218E+0	27.4265E-3
-358.268E-3	-5.30109E-12	-358.573E-3	-358.268E-3	-229.614E-3	39.9897E-12	-1.41493E+0	27.7843E-3
-370.079E-3	-5.45072E-12	-370.375E-3	-370.079E-3	-27.1012E-3	40.0506E-12	-1.41171E+0	24.3622E-3
-381.890E-3	-5.55862E-12	-382.151E-3	-381.890E-3	-16.3777E-3	40.0018E-12	-1.38436E+0	27.8714E-3
-393.701E-3	-5.70455E-12	-394.017E-3	-393.701E-3	-25.4801E-3	39.9878E-12	-1.39500E+0	28.7635E-3
-405.512E-3	-5.82069E-12	-405.825E-3	-405.512E-3	-88.2291E-3	40.0309E-12	-1.42212E+0	24.8482E-3
-417.323E-3	-5.97789E-12	-417.619E-3	-417.323E-3	85.7667E-3	40.0288E-12	-1.37392E+0	23.4782E-3
-429.134E-3	-6.09632E-12	-429.431E-3	-429.134E-3	-86.1459E-3	40.0723E-12	-1.43525E+0	26.3210E-3
-440.945E-3	-6.17783E-12	-441.224E-3	-440.945E-3	-120.020E-3	39.9592E-12	-1.45187E+0	28.4514E-3
-452.756E-3	-6.46833E-12	-453.031E-3	-452.756E-3	-57.0936E-3	40.0108E-12	-1.46578E+0	27.2144E-3
-464.567E-3	-6.66715E-12	-464.856E-3	-464.567E-3	-61.5970E-3	39.9878E-12	-1.46680E+0	26.8518E-3
-476.378E-3	-6.86796E-12	-476.676E-3	-476.378E-3	-71.1611E-3	40.0386E-12	-1.48036E+0	25.4550E-3
-488.189E-3	-7.12509E-12	-488.410E-3	-488.189E-3	-120.507E-3	39.9592E-12	-1.51625E+0	28.8242E-3
-500.000E-3	-7.55546E-12	-500.244E-3	-500.000E-3	-155.187E-3	40.0012E-12	-1.56206E+0	25.1333E-3
