Experiment	bias spectroscopy	
Date	01.12.2015 03:21:56	
User		
X (m)	280.501E-9	
Y (m)	-138.279E-9	
Z (m)	-4.07703E-9	
Z offset (m)	0E+0	
Settling time (s)	30E-3	
Integration time (s)	200E-3	
Z-Ctrl hold	TRUE	
Final Z (m)	-4.07703E-9	
Filter type	None	
Order		
Cutoff frq		
Current (A)	74.6394E-12	
Z (m)	-4.07703E-9	
Phase (deg)	-843.369E-3	
Amplitude (m)	40.4665E-12	
Frequency Shift (Hz)	-1.39223E+0	
Excitation (V)	6.48332E-3	

[DATA]
Bias calc (V)	Current (A)	Applied Voltage measured (V)	Bias (V)	Phase (deg)	Amplitude (m)	Frequency Shift (Hz)	Excitation (V)
1.00000E+0	75.5435E-12	999.318E-3	1.00000E+0	-109.111E-3	39.8245E-12	-1.14546E+0	26.2832E-3
988.189E-3	75.3672E-12	987.531E-3	988.189E-3	82.7315E-3	40.1984E-12	-1.08773E+0	23.9890E-3
976.378E-3	73.3808E-12	975.766E-3	976.378E-3	27.4859E-3	39.9050E-12	-1.12078E+0	23.1348E-3
964.567E-3	72.1077E-12	963.895E-3	964.567E-3	-50.5373E-3	39.8470E-12	-1.16201E+0	26.5759E-3
952.756E-3	72.3150E-12	952.133E-3	952.756E-3	20.8761E-3	40.0901E-12	-1.13113E+0	22.3804E-3
940.945E-3	71.9085E-12	940.295E-3	940.945E-3	-14.3653E-3	40.0816E-12	-1.14515E+0	21.1443E-3
929.134E-3	70.8150E-12	928.478E-3	929.134E-3	56.5674E-3	39.9544E-12	-1.11836E+0	21.4160E-3
917.323E-3	70.4764E-12	916.727E-3	917.323E-3	-106.415E-3	40.1076E-12	-1.16246E+0	22.9940E-3
905.512E-3	68.7880E-12	904.872E-3	905.512E-3	98.0378E-6	39.8974E-12	-1.11286E+0	24.3206E-3
893.701E-3	68.4396E-12	893.107E-3	893.701E-3	126.880E-3	40.0300E-12	-1.07108E+0	23.5166E-3
881.890E-3	67.3762E-12	881.270E-3	881.890E-3	86.4310E-3	39.9336E-12	-1.07053E+0	24.7282E-3
870.079E-3	66.6327E-12	869.470E-3	870.079E-3	-160.873E-3	39.9505E-12	-1.14574E+0	22.6189E-3
858.268E-3	65.8837E-12	857.647E-3	858.268E-3	18.0192E-3	39.8651E-12	-1.10368E+0	24.0405E-3
846.457E-3	65.8568E-12	845.823E-3	846.457E-3	-25.5747E-3	40.1249E-12	-1.08971E+0	19.1883E-3
834.646E-3	64.8448E-12	834.044E-3	834.646E-3	-15.2096E-3	40.0437E-12	-1.08643E+0	24.5603E-3
822.835E-3	63.0573E-12	822.240E-3	822.835E-3	165.083E-3	39.9258E-12	-1.02767E+0	24.8388E-3
811.024E-3	63.2857E-12	810.410E-3	811.024E-3	34.1998E-3	40.0138E-12	-1.06146E+0	22.6804E-3
799.213E-3	62.3830E-12	798.634E-3	799.213E-3	-59.8632E-3	40.0057E-12	-1.07421E+0	25.8951E-3
787.402E-3	61.4192E-12	786.805E-3	787.402E-3	6.24620E-3	40.0130E-12	-1.09250E+0	22.4168E-3
775.591E-3	60.5770E-12	775.023E-3	775.591E-3	-32.3844E-3	39.8827E-12	-1.09535E+0	25.8415E-3
763.780E-3	59.7433E-12	763.195E-3	763.780E-3	68.6057E-3	40.0013E-12	-1.09425E+0	25.2568E-3
751.969E-3	58.6441E-12	751.424E-3	751.969E-3	210.141E-3	39.9780E-12	-1.02248E+0	27.8252E-3
740.157E-3	58.0430E-12	739.622E-3	740.157E-3	158.982E-3	39.9091E-12	-981.250E-3	29.8928E-3
728.346E-3	58.0022E-12	727.788E-3	728.346E-3	-213.316E-3	40.1839E-12	-1.10507E+0	20.5302E-3
716.535E-3	56.6680E-12	715.999E-3	716.535E-3	66.7234E-3	39.9762E-12	-1.06211E+0	23.3471E-3
704.724E-3	56.1207E-12	704.303E-3	704.724E-3	15.3643E-3	39.9670E-12	-1.06450E+0	24.6685E-3
692.913E-3	55.4534E-12	692.503E-3	692.913E-3	-14.5983E-3	39.9770E-12	-1.05077E+0	28.2194E-3
681.102E-3	54.0548E-12	680.724E-3	681.102E-3	62.9763E-3	40.0249E-12	-1.03464E+0	25.2118E-3
669.291E-3	53.3388E-12	668.912E-3	669.291E-3	-141.736E-3	40.0337E-12	-1.08753E+0	27.6030E-3
657.480E-3	53.0187E-12	657.067E-3	657.480E-3	56.8415E-3	40.0152E-12	-1.04592E+0	23.5448E-3
645.669E-3	51.8412E-12	645.261E-3	645.669E-3	57.4092E-3	40.0985E-12	-1.03018E+0	24.2580E-3
633.858E-3	51.3986E-12	633.465E-3	633.858E-3	201.858E-3	39.9989E-12	-979.076E-3	24.1550E-3
622.047E-3	50.1047E-12	621.661E-3	622.047E-3	-119.301E-3	40.0191E-12	-1.07848E+0	22.0703E-3
610.236E-3	49.5031E-12	609.891E-3	610.236E-3	42.8027E-3	40.0041E-12	-1.04159E+0	23.1695E-3
598.425E-3	48.3673E-12	598.077E-3	598.425E-3	59.9913E-3	39.9754E-12	-1.02887E+0	25.9215E-3
586.614E-3	47.1279E-12	586.273E-3	586.614E-3	101.450E-3	40.0242E-12	-998.861E-3	27.7277E-3
574.803E-3	47.0931E-12	574.448E-3	574.803E-3	-140.784E-3	40.0768E-12	-1.08006E+0	22.8316E-3
562.992E-3	45.7411E-12	562.673E-3	562.992E-3	52.2281E-3	39.9567E-12	-1.05628E+0	26.5080E-3
551.181E-3	45.0201E-12	550.860E-3	551.181E-3	-68.7500E-3	40.0252E-12	-1.08825E+0	24.0893E-3
539.370E-3	43.6281E-12	538.988E-3	539.370E-3	97.9187E-3	40.0137E-12	-1.04955E+0	24.4440E-3
527.559E-3	43.2058E-12	527.206E-3	527.559E-3	137.159E-3	39.9691E-12	-1.01723E+0	24.1951E-3
515.748E-3	42.5111E-12	515.369E-3	515.748E-3	-116.360E-3	40.0380E-12	-1.08376E+0	24.7051E-3
503.937E-3	41.2273E-12	503.581E-3	503.937E-3	-2.83234E-3	40.0023E-12	-1.09783E+0	22.8641E-3
492.126E-3	40.5013E-12	491.756E-3	492.126E-3	74.7420E-3	39.9904E-12	-1.04407E+0	28.2776E-3
480.315E-3	39.8347E-12	479.946E-3	480.315E-3	-18.0454E-3	40.0063E-12	-1.06662E+0	26.8558E-3
468.504E-3	38.6167E-12	468.148E-3	468.504E-3	-87.7180E-3	40.0363E-12	-1.09947E+0	23.0342E-3
456.693E-3	37.1583E-12	456.346E-3	456.693E-3	33.3321E-3	39.9741E-12	-1.09200E+0	22.6337E-3
444.882E-3	36.5061E-12	444.580E-3	444.882E-3	78.8022E-3	40.0015E-12	-1.08369E+0	22.9536E-3
433.071E-3	35.6708E-12	432.750E-3	433.071E-3	75.2735E-3	40.0013E-12	-1.06818E+0	25.6255E-3
421.260E-3	34.3962E-12	420.932E-3	421.260E-3	79.7637E-3	39.9650E-12	-1.07392E+0	25.0765E-3
409.449E-3	33.8684E-12	409.159E-3	409.449E-3	35.1080E-3	40.0246E-12	-1.07800E+0	24.8813E-3
397.638E-3	32.8483E-12	397.311E-3	397.638E-3	-82.5954E-3	39.9560E-12	-1.11248E+0	25.9493E-3
385.827E-3	31.6071E-12	385.549E-3	385.827E-3	20.2278E-3	40.0140E-12	-1.09969E+0	23.4086E-3
374.016E-3	30.6508E-12	373.710E-3	374.016E-3	175.566E-3	39.9491E-12	-1.02348E+0	26.6721E-3
362.205E-3	30.1367E-12	361.917E-3	362.205E-3	-47.9055E-3	40.0352E-12	-1.10472E+0	23.9139E-3
350.394E-3	28.9643E-12	350.159E-3	350.394E-3	-104.208E-3	39.9775E-12	-1.13441E+0	25.2663E-3
338.583E-3	27.9420E-12	338.307E-3	338.583E-3	28.3486E-3	39.9816E-12	-1.09762E+0	25.2900E-3
326.772E-3	26.8942E-12	326.520E-3	326.772E-3	4.81479E-3	39.8878E-12	-1.09498E+0	26.5782E-3
314.961E-3	26.0694E-12	314.686E-3	314.961E-3	-80.6933E-3	40.0087E-12	-1.12541E+0	27.2184E-3
303.150E-3	25.4045E-12	302.860E-3	303.150E-3	16.5193E-3	40.1110E-12	-1.10415E+0	23.0258E-3
291.339E-3	24.0053E-12	291.100E-3	291.339E-3	-38.3549E-3	39.8881E-12	-1.14977E+0	25.6782E-3
279.528E-3	23.3380E-12	279.280E-3	279.528E-3	7.85856E-3	40.0089E-12	-1.14576E+0	27.3820E-3
267.717E-3	22.3043E-12	267.470E-3	267.717E-3	27.5858E-3	40.0376E-12	-1.13287E+0	23.4552E-3
255.906E-3	21.3473E-12	255.641E-3	255.906E-3	-164.300E-3	39.9605E-12	-1.18518E+0	26.5087E-3
244.094E-3	20.2242E-12	243.863E-3	244.094E-3	47.2712E-3	40.0078E-12	-1.14066E+0	25.4111E-3
232.283E-3	19.1534E-12	232.011E-3	232.283E-3	185.726E-3	39.9960E-12	-1.11454E+0	25.1009E-3
220.472E-3	18.1457E-12	220.179E-3	220.472E-3	-54.7091E-3	40.0716E-12	-1.16428E+0	24.4181E-3
208.661E-3	17.1618E-12	208.401E-3	208.661E-3	-152.696E-3	39.9099E-12	-1.21569E+0	28.9188E-3
196.850E-3	16.6622E-12	196.564E-3	196.850E-3	65.8137E-3	40.0604E-12	-1.14209E+0	25.5271E-3
185.039E-3	15.3100E-12	184.804E-3	185.039E-3	23.0896E-3	39.9559E-12	-1.15677E+0	26.3633E-3
173.228E-3	14.3590E-12	172.985E-3	173.228E-3	1.26716E-3	40.0676E-12	-1.15517E+0	25.3440E-3
161.417E-3	13.6859E-12	161.150E-3	161.417E-3	12.5081E-3	40.0365E-12	-1.15967E+0	25.0080E-3
149.606E-3	12.4817E-12	149.328E-3	149.606E-3	-104.812E-3	39.9375E-12	-1.22358E+0	29.0656E-3
137.795E-3	11.5523E-12	137.531E-3	137.795E-3	-64.2758E-3	40.0385E-12	-1.22375E+0	25.3635E-3
125.984E-3	10.4839E-12	125.766E-3	125.984E-3	43.2330E-3	39.9889E-12	-1.21598E+0	26.8449E-3
114.173E-3	9.54585E-12	113.927E-3	114.173E-3	-24.9748E-3	39.9812E-12	-1.24718E+0	29.2311E-3
102.362E-3	8.48424E-12	102.127E-3	102.362E-3	63.8335E-3	40.0390E-12	-1.22386E+0	25.3918E-3
90.5512E-3	7.61004E-12	90.3236E-3	90.5512E-3	44.3121E-3	40.0511E-12	-1.24001E+0	25.3219E-3
78.7402E-3	6.57294E-12	78.4799E-3	78.7402E-3	36.0446E-3	39.9806E-12	-1.24189E+0	24.5861E-3
66.9291E-3	5.52165E-12	66.6128E-3	66.9291E-3	-103.231E-3	40.0121E-12	-1.28388E+0	25.0954E-3
55.1181E-3	4.48824E-12	54.8453E-3	55.1181E-3	92.1800E-3	39.9750E-12	-1.21080E+0	26.0567E-3
43.3071E-3	3.46904E-12	43.0342E-3	43.3071E-3	-288.390E-3	39.9618E-12	-1.35127E+0	27.3524E-3
31.4961E-3	2.48920E-12	31.2114E-3	31.4961E-3	16.1384E-3	39.9977E-12	-1.29617E+0	25.5712E-3
19.6850E-3	1.51989E-12	19.4049E-3	19.6850E-3	-28.6113E-3	40.0392E-12	-1.29195E+0	24.4358E-3
7.87402E-3	574.041E-15	7.55136E-3	7.87402E-3	-31.5384E-3	39.9680E-12	-1.30647E+0	25.4726E-3
-3.93701E-3	-407.807E-15	-4.33299E-3	-3.93701E-3	53.6640E-3	39.9581E-12	-1.29029E+0	27.6828E-3
-15.7480E-3	-1.43945E-12	-16.1212E-3	-15.7480E-3	73.3547E-3	40.0320E-12	-1.28625E+0	27.2604E-3
-27.5591E-3	-2.48020E-12	-27.9270E-3	-27.5591E-3	-97.1073E-3	39.9546E-12	-1.34612E+0	27.3149E-3
-39.3701E-3	-3.54226E-12	-39.6949E-3	-39.3701E-3	-1.99010E-3	40.0008E-12	-1.32936E+0	26.3969E-3
-51.1811E-3	-4.54409E-12	-51.5481E-3	-51.1811E-3	-38.2060E-3	39.9962E-12	-1.33670E+0	25.6323E-3
-62.9921E-3	-5.64692E-12	-63.3252E-3	-62.9921E-3	-159.076E-3	40.0980E-12	-1.41025E+0	23.4856E-3
-74.8032E-3	-6.34596E-12	-75.1639E-3	-74.8032E-3	76.4681E-3	39.9800E-12	-1.35281E+0	25.5907E-3
-86.6142E-3	-6.81806E-12	-87.0263E-3	-86.6142E-3	125.198E-3	39.9544E-12	-1.32638E+0	27.4957E-3
-98.4252E-3	-7.46584E-12	-98.7821E-3	-98.4252E-3	-8.11149E-3	40.0071E-12	-1.37731E+0	28.1730E-3
-110.236E-3	-7.79559E-12	-110.639E-3	-110.236E-3	-97.8597E-3	39.9688E-12	-1.39522E+0	26.5949E-3
-122.047E-3	-8.48424E-12	-122.393E-3	-122.047E-3	30.8340E-3	39.9769E-12	-1.36786E+0	26.1330E-3
-133.858E-3	-9.16937E-12	-134.251E-3	-133.858E-3	-23.5939E-3	40.0450E-12	-1.39481E+0	25.9038E-3
-145.669E-3	-9.83608E-12	-146.045E-3	-145.669E-3	21.8207E-3	40.0604E-12	-1.37308E+0	25.1916E-3
-157.480E-3	-10.4020E-12	-157.814E-3	-157.480E-3	-12.5609E-3	39.9245E-12	-1.42567E+0	27.8733E-3
-169.291E-3	-11.0662E-12	-169.696E-3	-169.291E-3	-36.1832E-3	40.0436E-12	-1.43585E+0	24.6959E-3
-181.102E-3	-11.8391E-12	-181.439E-3	-181.102E-3	-95.7374E-3	39.9720E-12	-1.43611E+0	28.3490E-3
-192.913E-3	-12.3607E-12	-193.246E-3	-192.913E-3	-130.420E-3	40.0255E-12	-1.48286E+0	25.7077E-3
-204.724E-3	-12.7971E-12	-205.070E-3	-204.724E-3	1.39250E-3	39.9746E-12	-1.45827E+0	25.4767E-3
-216.535E-3	-13.7246E-12	-216.872E-3	-216.535E-3	-134.490E-3	40.0255E-12	-1.50901E+0	26.3918E-3
-228.346E-3	-14.0890E-12	-228.692E-3	-228.346E-3	82.4502E-3	39.9565E-12	-1.44559E+0	28.3987E-3
-240.157E-3	-14.8591E-12	-240.487E-3	-240.157E-3	-89.0139E-3	39.9493E-12	-1.49031E+0	26.2074E-3
-251.969E-3	-15.7358E-12	-252.313E-3	-251.969E-3	-20.9857E-3	39.9945E-12	-1.49647E+0	29.0278E-3
-263.780E-3	-16.5213E-12	-264.080E-3	-263.780E-3	-104.604E-3	40.0373E-12	-1.54690E+0	25.1616E-3
-275.591E-3	-17.2334E-12	-275.891E-3	-275.591E-3	-3.84965E-3	39.9320E-12	-1.51704E+0	24.9612E-3
-287.402E-3	-18.0748E-12	-287.725E-3	-287.402E-3	-80.8839E-3	39.8916E-12	-1.54356E+0	31.8274E-3
-299.213E-3	-19.1063E-12	-299.532E-3	-299.213E-3	-100.036E-3	40.1467E-12	-1.59313E+0	25.1762E-3
-311.024E-3	-19.7489E-12	-311.351E-3	-311.024E-3	-128.204E-3	39.9926E-12	-1.61401E+0	24.7458E-3
-322.835E-3	-20.4295E-12	-323.151E-3	-322.835E-3	-85.0841E-3	39.9888E-12	-1.61368E+0	27.3302E-3
-334.646E-3	-21.7776E-12	-334.923E-3	-334.646E-3	42.2771E-3	40.0111E-12	-1.60210E+0	30.1393E-3
-346.457E-3	-22.2561E-12	-346.737E-3	-346.457E-3	-60.7694E-3	40.0106E-12	-1.63666E+0	26.4749E-3
-358.268E-3	-23.0474E-12	-358.576E-3	-358.268E-3	87.8429E-3	40.0285E-12	-1.60981E+0	25.0820E-3
-370.079E-3	-23.9579E-12	-370.362E-3	-370.079E-3	-203.450E-3	40.0454E-12	-1.70303E+0	26.3548E-3
-381.890E-3	-24.4105E-12	-382.131E-3	-381.890E-3	72.8080E-3	40.0598E-12	-1.59651E+0	24.1492E-3
-393.701E-3	-25.0906E-12	-394.004E-3	-393.701E-3	-80.5076E-3	39.9048E-12	-1.66187E+0	30.1428E-3
-405.512E-3	-25.7533E-12	-405.813E-3	-405.512E-3	60.4159E-3	39.9578E-12	-1.63012E+0	27.8766E-3
-417.323E-3	-26.8863E-12	-417.604E-3	-417.323E-3	-173.787E-3	40.0370E-12	-1.71825E+0	26.2381E-3
-429.134E-3	-27.8807E-12	-429.413E-3	-429.134E-3	-25.1985E-3	40.0329E-12	-1.70072E+0	26.2333E-3
-440.945E-3	-28.4674E-12	-441.223E-3	-440.945E-3	-166.073E-3	39.8874E-12	-1.77460E+0	26.0410E-3
-452.756E-3	-29.3985E-12	-453.027E-3	-452.756E-3	31.4032E-3	39.9468E-12	-1.76715E+0	30.4571E-3
-464.567E-3	-30.7076E-12	-464.852E-3	-464.567E-3	-139.116E-3	40.0163E-12	-1.81170E+0	25.9155E-3
-476.378E-3	-32.4176E-12	-476.678E-3	-476.378E-3	-15.3041E-3	40.1157E-12	-1.79259E+0	23.7078E-3
-488.189E-3	-33.2032E-12	-488.414E-3	-488.189E-3	84.2469E-3	39.9793E-12	-1.74018E+0	27.0506E-3
-500.000E-3	-34.2559E-12	-500.253E-3	-500.000E-3	-16.6690E-3	39.9898E-12	-1.78770E+0	25.5380E-3
