Experiment	bias spectroscopy	
Date	01.12.2015 06:33:44	
User		
X (m)	281.098E-9	
Y (m)	-137.848E-9	
Z (m)	-4.07703E-9	
Z offset (m)	0E+0	
Settling time (s)	30E-3	
Integration time (s)	200E-3	
Z-Ctrl hold	TRUE	
Final Z (m)	-4.07703E-9	
Filter type	None	
Order		
Cutoff frq		
Current (A)	16.104E-12	
Z (m)	-4.07703E-9	
Phase (deg)	-644.197E-3	
Amplitude (m)	39.9892E-12	
Frequency Shift (Hz)	-1.26896E+0	
Excitation (V)	25.3553E-3	

[DATA]
Bias calc (V)	Current (A)	Applied Voltage measured (V)	Bias (V)	Phase (deg)	Amplitude (m)	Frequency Shift (Hz)	Excitation (V)
1.00000E+0	15.5951E-12	999.342E-3	1.00000E+0	15.2858E-3	40.0167E-12	-1.11782E+0	24.5320E-3
988.189E-3	15.5522E-12	987.531E-3	988.189E-3	145.279E-3	39.9101E-12	-1.04939E+0	25.9614E-3
976.378E-3	15.4185E-12	975.774E-3	976.378E-3	-53.5173E-3	40.0345E-12	-1.12476E+0	24.9284E-3
964.567E-3	15.2891E-12	963.902E-3	964.567E-3	66.9306E-3	39.9544E-12	-1.07405E+0	26.0135E-3
952.756E-3	15.1779E-12	952.146E-3	952.756E-3	6.79140E-3	40.0453E-12	-1.07094E+0	22.8960E-3
940.945E-3	15.0176E-12	940.299E-3	940.945E-3	49.4840E-3	39.9100E-12	-1.06679E+0	27.5312E-3
929.134E-3	14.9233E-12	928.483E-3	929.134E-3	-72.5546E-3	40.0432E-12	-1.09727E+0	25.8996E-3
917.323E-3	14.6030E-12	916.732E-3	917.323E-3	-90.9607E-3	39.9427E-12	-1.08716E+0	27.3696E-3
905.512E-3	14.4410E-12	904.871E-3	905.512E-3	177.240E-3	39.9583E-12	-1.00607E+0	26.0547E-3
893.701E-3	14.4471E-12	893.121E-3	893.701E-3	94.6654E-3	40.0365E-12	-1.00522E+0	24.9876E-3
881.890E-3	14.4405E-12	881.278E-3	881.890E-3	59.5099E-3	40.0257E-12	-987.106E-3	24.8008E-3
870.079E-3	14.2213E-12	869.478E-3	870.079E-3	61.7622E-3	39.9527E-12	-974.522E-3	27.3600E-3
858.268E-3	14.1003E-12	857.649E-3	858.268E-3	-64.7226E-3	39.9972E-12	-1.01676E+0	24.5156E-3
846.457E-3	14.0034E-12	845.815E-3	846.457E-3	31.9434E-3	40.0272E-12	-996.026E-3	24.9273E-3
834.646E-3	13.9149E-12	834.047E-3	834.646E-3	-14.8143E-3	39.9048E-12	-1.01943E+0	28.4175E-3
822.835E-3	13.8277E-12	822.232E-3	822.835E-3	78.5683E-3	39.9903E-12	-1.00031E+0	27.0834E-3
811.024E-3	13.5638E-12	810.409E-3	811.024E-3	-75.2190E-3	40.0414E-12	-1.04640E+0	26.2007E-3
799.213E-3	13.3772E-12	798.635E-3	799.213E-3	75.1874E-3	40.0185E-12	-1.00110E+0	24.4774E-3
787.402E-3	13.2732E-12	786.800E-3	787.402E-3	7.20420E-3	40.0096E-12	-995.273E-3	25.6471E-3
775.591E-3	13.2394E-12	775.015E-3	775.591E-3	32.4490E-3	39.9812E-12	-989.132E-3	26.9635E-3
763.780E-3	12.9545E-12	763.194E-3	763.780E-3	-92.2635E-3	40.0506E-12	-1.02316E+0	24.9473E-3
751.969E-3	12.8918E-12	751.423E-3	751.969E-3	50.0757E-3	39.9750E-12	-978.458E-3	27.2355E-3
740.157E-3	12.6771E-12	739.619E-3	740.157E-3	127.350E-3	39.9499E-12	-933.351E-3	30.4790E-3
728.346E-3	12.5766E-12	727.784E-3	728.346E-3	-78.3997E-3	40.0247E-12	-985.337E-3	25.3794E-3
716.535E-3	12.4569E-12	715.989E-3	716.535E-3	-87.6189E-3	39.9394E-12	-1.01106E+0	25.5612E-3
704.724E-3	12.4227E-12	704.306E-3	704.724E-3	158.463E-3	40.0539E-12	-945.845E-3	26.2840E-3
692.913E-3	12.1780E-12	692.508E-3	692.913E-3	43.3654E-3	40.0055E-12	-960.457E-3	26.6319E-3
681.102E-3	12.0500E-12	680.732E-3	681.102E-3	-4.68093E-3	40.0281E-12	-972.341E-3	26.3103E-3
669.291E-3	11.8364E-12	668.919E-3	669.291E-3	-25.0112E-3	39.9944E-12	-982.021E-3	26.5230E-3
657.480E-3	11.7661E-12	657.083E-3	657.480E-3	70.5219E-3	39.9988E-12	-942.273E-3	26.3103E-3
645.669E-3	11.7529E-12	645.274E-3	645.669E-3	-9.06270E-3	39.9530E-12	-960.748E-3	28.3318E-3
633.858E-3	11.3046E-12	633.463E-3	633.858E-3	108.046E-3	40.0734E-12	-897.058E-3	24.9979E-3
622.047E-3	11.2030E-12	621.661E-3	622.047E-3	-64.9226E-3	39.9014E-12	-949.413E-3	29.6573E-3
610.236E-3	11.2101E-12	609.879E-3	610.236E-3	70.0685E-3	40.0224E-12	-909.694E-3	25.6534E-3
598.425E-3	10.9721E-12	598.067E-3	598.425E-3	-83.5176E-3	39.9824E-12	-946.911E-3	25.9283E-3
586.614E-3	10.7229E-12	586.261E-3	586.614E-3	-126.372E-3	39.9564E-12	-991.323E-3	27.2537E-3
574.803E-3	10.7061E-12	574.448E-3	574.803E-3	198.302E-3	40.0169E-12	-912.673E-3	26.7148E-3
562.992E-3	10.5544E-12	562.665E-3	562.992E-3	726.862E-6	40.0323E-12	-948.968E-3	24.8644E-3
551.181E-3	10.2481E-12	550.846E-3	551.181E-3	76.7897E-3	39.8600E-12	-913.613E-3	29.5951E-3
539.370E-3	10.2435E-12	538.982E-3	539.370E-3	27.5001E-3	40.0185E-12	-928.935E-3	25.1036E-3
527.559E-3	10.0245E-12	527.207E-3	527.559E-3	19.1503E-3	39.9655E-12	-945.129E-3	26.8654E-3
515.748E-3	9.79952E-12	515.373E-3	515.748E-3	-37.9818E-3	39.9810E-12	-954.967E-3	26.3605E-3
503.937E-3	9.76287E-12	503.584E-3	503.937E-3	-47.4791E-3	40.0494E-12	-975.622E-3	24.1182E-3
492.126E-3	9.46259E-12	491.754E-3	492.126E-3	156.880E-3	40.0491E-12	-928.193E-3	23.3484E-3
480.315E-3	9.25574E-12	479.946E-3	480.315E-3	93.3667E-3	40.0020E-12	-931.754E-3	25.8380E-3
468.504E-3	9.08798E-12	468.156E-3	468.504E-3	44.6509E-3	40.0117E-12	-920.678E-3	23.6443E-3
456.693E-3	8.89334E-12	456.342E-3	456.693E-3	-20.0863E-3	40.0070E-12	-948.124E-3	25.0215E-3
444.882E-3	8.68189E-12	444.567E-3	444.882E-3	102.786E-3	39.9508E-12	-888.889E-3	27.2650E-3
433.071E-3	8.62658E-12	432.731E-3	433.071E-3	-37.9611E-3	40.0848E-12	-961.119E-3	23.3308E-3
421.260E-3	8.34921E-12	420.922E-3	421.260E-3	13.8792E-3	39.9925E-12	-940.637E-3	25.2632E-3
409.449E-3	8.17413E-12	409.144E-3	409.449E-3	20.9566E-3	39.9689E-12	-951.545E-3	25.2824E-3
397.638E-3	8.01229E-12	397.295E-3	397.638E-3	17.1621E-3	39.9511E-12	-971.118E-3	26.1424E-3
385.827E-3	7.74473E-12	385.538E-3	385.827E-3	82.6030E-3	39.9871E-12	-928.614E-3	28.2976E-3
374.016E-3	7.60908E-12	373.703E-3	374.016E-3	-18.9179E-3	40.0081E-12	-938.630E-3	26.6795E-3
362.205E-3	7.43498E-12	361.903E-3	362.205E-3	45.7586E-3	39.9622E-12	-928.588E-3	27.0546E-3
350.394E-3	7.25557E-12	350.149E-3	350.394E-3	-18.2306E-3	39.9899E-12	-941.763E-3	24.1880E-3
338.583E-3	6.98698E-12	338.290E-3	338.583E-3	-80.6622E-3	39.9702E-12	-971.979E-3	26.4332E-3
326.772E-3	6.95086E-12	326.505E-3	326.772E-3	-55.8941E-3	40.0506E-12	-952.547E-3	24.0353E-3
314.961E-3	6.63804E-12	314.674E-3	314.961E-3	34.3331E-3	40.0430E-12	-939.554E-3	26.7203E-3
303.150E-3	6.46571E-12	302.855E-3	303.150E-3	46.5413E-3	40.0088E-12	-930.990E-3	23.9558E-3
291.339E-3	6.33520E-12	291.100E-3	291.339E-3	-35.4361E-3	39.9873E-12	-947.441E-3	27.9507E-3
279.528E-3	6.02403E-12	279.269E-3	279.528E-3	-82.9325E-3	40.0163E-12	-957.632E-3	25.5015E-3
267.717E-3	5.90437E-12	267.464E-3	267.717E-3	60.9349E-3	39.9781E-12	-943.886E-3	24.3740E-3
255.906E-3	5.62479E-12	255.635E-3	255.906E-3	-206.936E-3	39.9988E-12	-1.04795E+0	24.9628E-3
244.094E-3	5.40066E-12	243.854E-3	244.094E-3	-35.5400E-3	40.0088E-12	-1.02825E+0	24.8565E-3
232.283E-3	5.22112E-12	232.004E-3	232.283E-3	82.9651E-3	39.9853E-12	-981.580E-3	25.3196E-3
220.472E-3	5.05060E-12	220.177E-3	220.472E-3	80.8107E-3	40.0141E-12	-974.816E-3	26.0872E-3
208.661E-3	4.77935E-12	208.394E-3	208.661E-3	-46.8353E-3	39.9809E-12	-991.420E-3	24.7683E-3
196.850E-3	4.48064E-12	196.557E-3	196.850E-3	-186.676E-3	39.9750E-12	-1.07175E+0	27.8169E-3
185.039E-3	4.27936E-12	184.801E-3	185.039E-3	78.0918E-3	40.0209E-12	-996.745E-3	26.2901E-3
173.228E-3	4.03927E-12	172.993E-3	173.228E-3	192.481E-3	40.0057E-12	-922.777E-3	23.5320E-3
161.417E-3	3.81721E-12	161.157E-3	161.417E-3	-98.8018E-3	39.9780E-12	-1.01261E+0	26.0408E-3
149.606E-3	3.53653E-12	149.328E-3	149.606E-3	-9.41290E-3	39.9412E-12	-1.02687E+0	26.4109E-3
137.795E-3	3.26092E-12	137.544E-3	137.795E-3	-43.3465E-3	40.0661E-12	-1.03933E+0	23.7384E-3
125.984E-3	3.03615E-12	125.778E-3	125.984E-3	69.7020E-3	40.0609E-12	-996.966E-3	27.7924E-3
114.173E-3	2.73088E-12	113.942E-3	114.173E-3	79.0883E-3	40.0723E-12	-978.638E-3	23.4642E-3
102.362E-3	2.45214E-12	102.135E-3	102.362E-3	-148.528E-3	39.9618E-12	-1.09259E+0	28.6329E-3
90.5512E-3	2.14885E-12	90.3307E-3	90.5512E-3	110.464E-3	39.9284E-12	-1.01645E+0	28.1674E-3
78.7402E-3	1.86492E-12	78.5075E-3	78.7402E-3	70.5174E-3	39.9849E-12	-1.00781E+0	26.6066E-3
66.9291E-3	1.55056E-12	66.6349E-3	66.9291E-3	-110.639E-3	39.9457E-12	-1.08224E+0	27.5931E-3
55.1181E-3	1.28136E-12	54.8491E-3	55.1181E-3	151.131E-3	40.0259E-12	-995.039E-3	27.8244E-3
43.3071E-3	980.942E-15	43.0276E-3	43.3071E-3	-88.1117E-3	40.0817E-12	-1.08736E+0	27.1803E-3
31.4961E-3	667.643E-15	31.2059E-3	31.4961E-3	62.2904E-3	40.0062E-12	-1.04594E+0	24.7490E-3
19.6850E-3	366.432E-15	19.4034E-3	19.6850E-3	-63.5998E-3	39.9722E-12	-1.07612E+0	27.5075E-3
7.87402E-3	68.4717E-15	7.55095E-3	7.87402E-3	-129.814E-3	39.9725E-12	-1.10373E+0	25.3772E-3
-3.93701E-3	-222.200E-15	-4.33116E-3	-3.93701E-3	-105.452E-3	40.0763E-12	-1.12793E+0	24.9770E-3
-15.7480E-3	-534.558E-15	-16.1144E-3	-15.7480E-3	212.070E-3	39.9751E-12	-1.03591E+0	26.2323E-3
-27.5591E-3	-832.665E-15	-27.9234E-3	-27.5591E-3	-86.6242E-3	39.9853E-12	-1.10275E+0	26.8103E-3
-39.3701E-3	-1.13680E-12	-39.6928E-3	-39.3701E-3	-204.113E-3	39.9656E-12	-1.15563E+0	27.5989E-3
-51.1811E-3	-1.44412E-12	-51.5513E-3	-51.1811E-3	-33.1110E-3	40.0191E-12	-1.13764E+0	26.5569E-3
-62.9921E-3	-1.71829E-12	-63.3235E-3	-62.9921E-3	74.8458E-3	40.0050E-12	-1.11538E+0	26.2611E-3
-74.8032E-3	-1.95268E-12	-75.1655E-3	-74.8032E-3	-13.9457E-3	40.0281E-12	-1.13955E+0	26.5757E-3
-86.6142E-3	-2.07500E-12	-87.0225E-3	-86.6142E-3	-19.3829E-3	39.9572E-12	-1.13781E+0	25.8987E-3
-98.4252E-3	-2.19126E-12	-98.7912E-3	-98.4252E-3	16.5183E-3	40.0135E-12	-1.13287E+0	27.0254E-3
-110.236E-3	-2.30473E-12	-110.641E-3	-110.236E-3	51.8187E-3	40.0447E-12	-1.12993E+0	22.6966E-3
-122.047E-3	-2.46069E-12	-122.392E-3	-122.047E-3	-127.176E-3	39.9585E-12	-1.17848E+0	26.5862E-3
-133.858E-3	-2.62100E-12	-134.246E-3	-133.858E-3	-29.2032E-3	40.0249E-12	-1.16456E+0	25.4640E-3
-145.669E-3	-2.77671E-12	-146.044E-3	-145.669E-3	-16.5140E-3	40.0211E-12	-1.17469E+0	24.9446E-3
-157.480E-3	-2.93710E-12	-157.817E-3	-157.480E-3	-31.8431E-3	39.9941E-12	-1.20276E+0	26.5368E-3
-169.291E-3	-3.09575E-12	-169.680E-3	-169.291E-3	45.3305E-3	40.0464E-12	-1.19218E+0	25.7773E-3
-181.102E-3	-3.23903E-12	-181.428E-3	-181.102E-3	-35.5769E-3	39.9660E-12	-1.20199E+0	26.9886E-3
-192.913E-3	-3.40310E-12	-193.236E-3	-192.913E-3	-67.5553E-3	40.0512E-12	-1.21702E+0	24.1041E-3
-204.724E-3	-3.51125E-12	-205.060E-3	-204.724E-3	-25.1452E-3	39.9747E-12	-1.22482E+0	27.0272E-3
-216.535E-3	-3.62511E-12	-216.870E-3	-216.535E-3	-64.5778E-3	39.9638E-12	-1.25896E+0	28.5340E-3
-228.346E-3	-3.72152E-12	-228.697E-3	-228.346E-3	3.21928E-3	39.9336E-12	-1.22355E+0	31.7405E-3
-240.157E-3	-3.95631E-12	-240.494E-3	-240.157E-3	-65.4369E-3	40.0482E-12	-1.25946E+0	24.6120E-3
-251.969E-3	-4.10315E-12	-252.311E-3	-251.969E-3	-902.077E-6	40.0591E-12	-1.26662E+0	23.2024E-3
-263.780E-3	-4.21371E-12	-264.072E-3	-263.780E-3	-97.1334E-3	39.9507E-12	-1.30528E+0	27.0894E-3
-275.591E-3	-4.38273E-12	-275.886E-3	-275.591E-3	-131.282E-3	40.0931E-12	-1.33719E+0	22.1441E-3
-287.402E-3	-4.50290E-12	-287.724E-3	-287.402E-3	-29.0511E-3	39.9919E-12	-1.31265E+0	26.6670E-3
-299.213E-3	-4.66152E-12	-299.528E-3	-299.213E-3	77.9081E-3	39.9855E-12	-1.30179E+0	24.9246E-3
-311.024E-3	-4.77486E-12	-311.352E-3	-311.024E-3	-119.629E-3	40.0360E-12	-1.37147E+0	25.6774E-3
-322.835E-3	-4.90431E-12	-323.129E-3	-322.835E-3	114.396E-3	39.9570E-12	-1.30133E+0	26.2752E-3
-334.646E-3	-5.05827E-12	-334.906E-3	-334.646E-3	-108.546E-3	39.9875E-12	-1.37406E+0	26.0598E-3
-346.457E-3	-5.10679E-12	-346.729E-3	-346.457E-3	-118.919E-3	39.9976E-12	-1.37404E+0	26.0250E-3
-358.268E-3	-5.29256E-12	-358.571E-3	-358.268E-3	-36.5854E-3	40.0045E-12	-1.36503E+0	24.5804E-3
-370.079E-3	-5.44142E-12	-370.371E-3	-370.079E-3	-22.6216E-3	39.9791E-12	-1.36375E+0	23.7137E-3
-381.890E-3	-5.63377E-12	-382.141E-3	-381.890E-3	2.25882E-3	40.0016E-12	-1.37791E+0	25.5792E-3
-393.701E-3	-5.66008E-12	-394.011E-3	-393.701E-3	6.99242E-3	40.0052E-12	-1.36044E+0	24.9876E-3
-405.512E-3	-5.78264E-12	-405.825E-3	-405.512E-3	-130.483E-3	39.9282E-12	-1.42773E+0	27.7413E-3
-417.323E-3	-6.02001E-12	-417.622E-3	-417.323E-3	1.91263E-3	40.0013E-12	-1.41404E+0	26.0263E-3
-429.134E-3	-6.09670E-12	-429.436E-3	-429.134E-3	-166.431E-3	40.0040E-12	-1.47207E+0	26.3223E-3
-440.945E-3	-6.32198E-12	-441.234E-3	-440.945E-3	-35.1787E-3	40.0345E-12	-1.46313E+0	23.9833E-3
-452.756E-3	-6.53132E-12	-453.039E-3	-452.756E-3	117.620E-3	40.0646E-12	-1.42938E+0	27.0799E-3
-464.567E-3	-6.64346E-12	-464.871E-3	-464.567E-3	-52.3242E-3	39.9862E-12	-1.46073E+0	25.7866E-3
-476.378E-3	-6.95619E-12	-476.689E-3	-476.378E-3	-117.703E-3	40.0651E-12	-1.51139E+0	23.8862E-3
-488.189E-3	-7.18039E-12	-488.423E-3	-488.189E-3	-126.003E-3	39.8986E-12	-1.53607E+0	30.1361E-3
-500.000E-3	-7.47320E-12	-500.271E-3	-500.000E-3	73.8676E-3	39.9950E-12	-1.49594E+0	28.1761E-3
