Experiment	bias spectroscopy	
Date	01.12.2015 04:14:05	
User		
X (m)	280.652E-9	
Y (m)	-138.147E-9	
Z (m)	-4.07703E-9	
Z offset (m)	0E+0	
Settling time (s)	30E-3	
Integration time (s)	200E-3	
Z-Ctrl hold	TRUE	
Final Z (m)	-4.07703E-9	
Filter type	None	
Order		
Cutoff frq		
Current (A)	62.5791E-12	
Z (m)	-4.07703E-9	
Phase (deg)	-1.32164E+0	
Amplitude (m)	39.6697E-12	
Frequency Shift (Hz)	-1.52289E+0	
Excitation (V)	28.7872E-3	

[DATA]
Bias calc (V)	Current (A)	Applied Voltage measured (V)	Bias (V)	Phase (deg)	Amplitude (m)	Frequency Shift (Hz)	Excitation (V)
1.00000E+0	63.4119E-12	999.349E-3	1.00000E+0	72.9755E-3	40.0295E-12	-1.01814E+0	25.4689E-3
988.189E-3	62.7422E-12	987.556E-3	988.189E-3	-181.380E-3	40.0598E-12	-1.13343E+0	24.3566E-3
976.378E-3	61.8986E-12	975.784E-3	976.378E-3	173.146E-3	40.0451E-12	-1.02682E+0	23.9589E-3
964.567E-3	61.3658E-12	963.924E-3	964.567E-3	-16.1660E-3	40.0312E-12	-1.06455E+0	23.4363E-3
952.756E-3	60.9474E-12	952.159E-3	952.756E-3	7.93750E-3	39.9931E-12	-1.04011E+0	23.9460E-3
940.945E-3	59.9604E-12	940.330E-3	940.945E-3	-30.4960E-3	40.0259E-12	-1.06892E+0	22.4923E-3
929.134E-3	59.0630E-12	928.503E-3	929.134E-3	216.330E-3	39.9814E-12	-975.565E-3	21.8254E-3
917.323E-3	58.7366E-12	916.759E-3	917.323E-3	83.6882E-3	39.9412E-12	-1.01354E+0	27.9246E-3
905.512E-3	58.0893E-12	904.902E-3	905.512E-3	157.894E-3	40.1551E-12	-984.540E-3	22.0359E-3
893.701E-3	57.2603E-12	893.151E-3	893.701E-3	-49.6936E-3	39.9910E-12	-1.06296E+0	23.3950E-3
881.890E-3	56.3014E-12	881.312E-3	881.890E-3	-13.6896E-3	40.0113E-12	-1.06974E+0	21.8052E-3
870.079E-3	55.5671E-12	869.519E-3	870.079E-3	198.864E-3	40.0177E-12	-969.014E-3	24.1511E-3
858.268E-3	55.0407E-12	857.702E-3	858.268E-3	-160.101E-3	40.0165E-12	-1.08396E+0	21.3807E-3
846.457E-3	54.1928E-12	845.870E-3	846.457E-3	216.235E-3	39.9796E-12	-928.983E-3	25.4410E-3
834.646E-3	53.5860E-12	834.082E-3	834.646E-3	-47.1661E-3	39.9880E-12	-1.03659E+0	25.1968E-3
822.835E-3	53.2082E-12	822.270E-3	822.835E-3	-21.2608E-3	40.0898E-12	-1.01680E+0	20.5994E-3
811.024E-3	52.4764E-12	810.447E-3	811.024E-3	-88.6913E-3	39.9510E-12	-1.03303E+0	23.8668E-3
799.213E-3	52.0933E-12	798.671E-3	799.213E-3	-6.20085E-3	39.9763E-12	-1.01124E+0	24.9556E-3
787.402E-3	51.2247E-12	786.842E-3	787.402E-3	73.3071E-3	40.0819E-12	-982.905E-3	23.9014E-3
775.591E-3	50.7609E-12	775.051E-3	775.591E-3	20.8782E-3	40.0714E-12	-987.139E-3	24.8489E-3
763.780E-3	49.3785E-12	763.223E-3	763.780E-3	135.776E-3	39.9221E-12	-962.222E-3	24.5453E-3
751.969E-3	49.1134E-12	751.457E-3	751.969E-3	-2.89032E-3	40.0480E-12	-1.00335E+0	21.2004E-3
740.157E-3	47.9219E-12	739.650E-3	740.157E-3	70.5734E-3	39.9578E-12	-962.999E-3	25.4317E-3
728.346E-3	47.1263E-12	727.804E-3	728.346E-3	132.960E-3	40.0246E-12	-938.180E-3	26.0221E-3
716.535E-3	46.2824E-12	716.013E-3	716.535E-3	-25.6923E-3	39.9154E-12	-992.889E-3	26.4527E-3
704.724E-3	45.8816E-12	704.325E-3	704.724E-3	-37.4297E-3	40.0450E-12	-998.259E-3	22.1464E-3
692.913E-3	45.0716E-12	692.520E-3	692.913E-3	75.1401E-3	40.0201E-12	-951.295E-3	25.4365E-3
681.102E-3	44.6461E-12	680.754E-3	681.102E-3	67.8423E-3	40.0238E-12	-941.528E-3	25.8738E-3
669.291E-3	43.5619E-12	668.941E-3	669.291E-3	-158.304E-3	40.1189E-12	-1.01122E+0	21.5754E-3
657.480E-3	42.8252E-12	657.110E-3	657.480E-3	69.2879E-3	39.9605E-12	-961.161E-3	28.2010E-3
645.669E-3	42.2262E-12	645.288E-3	645.669E-3	-119.073E-3	40.0092E-12	-1.01328E+0	24.7437E-3
633.858E-3	41.2230E-12	633.480E-3	633.858E-3	109.187E-3	39.9673E-12	-962.475E-3	26.7097E-3
622.047E-3	40.8850E-12	621.683E-3	622.047E-3	77.6512E-3	39.9967E-12	-941.916E-3	25.3139E-3
610.236E-3	39.9543E-12	609.913E-3	610.236E-3	-60.3334E-3	40.0187E-12	-953.525E-3	23.1512E-3
598.425E-3	39.3503E-12	598.097E-3	598.425E-3	10.4767E-3	39.9366E-12	-942.446E-3	28.4774E-3
586.614E-3	38.5488E-12	586.291E-3	586.614E-3	-85.9384E-3	40.0136E-12	-976.738E-3	23.7408E-3
574.803E-3	37.4185E-12	574.464E-3	574.803E-3	16.3804E-3	39.9756E-12	-955.182E-3	21.6509E-3
562.992E-3	36.9674E-12	562.682E-3	562.992E-3	-4.98936E-3	39.9983E-12	-962.312E-3	24.2338E-3
551.181E-3	36.2050E-12	550.877E-3	551.181E-3	-46.2649E-3	40.0154E-12	-976.258E-3	24.5894E-3
539.370E-3	35.4959E-12	539.020E-3	539.370E-3	-10.3361E-3	39.9272E-12	-987.799E-3	27.3022E-3
527.559E-3	34.6749E-12	527.243E-3	527.559E-3	142.167E-3	40.0162E-12	-931.630E-3	23.3863E-3
515.748E-3	34.0424E-12	515.406E-3	515.748E-3	-15.0488E-3	40.0047E-12	-965.700E-3	26.9922E-3
503.937E-3	33.1138E-12	503.612E-3	503.937E-3	69.9264E-3	39.9278E-12	-940.293E-3	25.7736E-3
492.126E-3	32.4026E-12	491.790E-3	492.126E-3	-60.8174E-3	40.0245E-12	-981.403E-3	24.7380E-3
480.315E-3	31.2260E-12	479.985E-3	480.315E-3	69.2151E-3	39.9511E-12	-967.061E-3	24.6946E-3
468.504E-3	30.9718E-12	468.188E-3	468.504E-3	143.347E-3	40.0795E-12	-948.803E-3	24.6747E-3
456.693E-3	29.7069E-12	456.376E-3	456.693E-3	-20.2006E-3	39.9788E-12	-973.811E-3	24.7165E-3
444.882E-3	29.1001E-12	444.601E-3	444.882E-3	83.3172E-3	40.0002E-12	-941.907E-3	27.1836E-3
433.071E-3	28.4239E-12	432.768E-3	433.071E-3	41.6535E-3	39.9540E-12	-962.399E-3	27.3495E-3
421.260E-3	27.5571E-12	420.957E-3	421.260E-3	-68.3224E-3	40.0051E-12	-1.01055E+0	25.0482E-3
409.449E-3	26.6711E-12	409.180E-3	409.449E-3	22.1935E-3	40.0020E-12	-988.550E-3	24.3231E-3
397.638E-3	25.8256E-12	397.329E-3	397.638E-3	58.6550E-3	39.9368E-12	-983.883E-3	26.4464E-3
385.827E-3	25.2934E-12	385.565E-3	385.827E-3	-115.815E-3	40.0223E-12	-1.04231E+0	25.5609E-3
374.016E-3	24.4524E-12	373.718E-3	374.016E-3	-70.2801E-3	40.0316E-12	-1.02092E+0	25.6649E-3
362.205E-3	23.8070E-12	361.929E-3	362.205E-3	-67.5936E-3	40.0005E-12	-1.04251E+0	26.1525E-3
350.394E-3	22.6680E-12	350.176E-3	350.394E-3	87.1025E-3	39.9553E-12	-980.037E-3	25.0276E-3
338.583E-3	21.9828E-12	338.319E-3	338.583E-3	-104.147E-3	40.0609E-12	-1.05081E+0	24.3387E-3
326.772E-3	21.2378E-12	326.525E-3	326.772E-3	73.4680E-3	39.9872E-12	-990.233E-3	23.8207E-3
314.961E-3	20.2642E-12	314.695E-3	314.961E-3	-51.0495E-3	40.0284E-12	-1.04002E+0	26.2693E-3
303.150E-3	19.6078E-12	302.873E-3	303.150E-3	141.431E-3	39.9412E-12	-978.334E-3	25.5842E-3
291.339E-3	18.9625E-12	291.125E-3	291.339E-3	34.6900E-3	39.9943E-12	-1.00065E+0	25.3102E-3
279.528E-3	18.2058E-12	279.301E-3	279.528E-3	50.5293E-3	40.0427E-12	-987.875E-3	26.0717E-3
267.717E-3	17.3320E-12	267.484E-3	267.717E-3	25.2954E-3	39.9576E-12	-1.02355E+0	27.8108E-3
255.906E-3	16.5902E-12	255.654E-3	255.906E-3	-40.8405E-3	39.9943E-12	-1.05397E+0	25.6617E-3
244.094E-3	15.8364E-12	243.885E-3	244.094E-3	5.99034E-3	39.9809E-12	-1.05023E+0	26.5842E-3
232.283E-3	14.8671E-12	232.036E-3	232.283E-3	-88.2027E-3	39.9572E-12	-1.07792E+0	25.4734E-3
220.472E-3	14.1669E-12	220.199E-3	220.472E-3	27.5226E-3	40.0084E-12	-1.05964E+0	23.0717E-3
208.661E-3	13.7195E-12	208.426E-3	208.661E-3	-46.6491E-3	40.0008E-12	-1.06494E+0	27.5958E-3
196.850E-3	12.8320E-12	196.584E-3	196.850E-3	52.2640E-3	40.0049E-12	-1.06195E+0	27.7231E-3
185.039E-3	11.9178E-12	184.818E-3	185.039E-3	-10.2646E-3	39.9815E-12	-1.08267E+0	25.8906E-3
173.228E-3	11.1747E-12	173.010E-3	173.228E-3	62.4887E-3	39.9862E-12	-1.05056E+0	25.6135E-3
161.417E-3	10.5405E-12	161.181E-3	161.417E-3	82.6157E-3	40.0041E-12	-1.04419E+0	25.3402E-3
149.606E-3	9.68593E-12	149.356E-3	149.606E-3	-122.204E-3	39.9428E-12	-1.13304E+0	27.7456E-3
137.795E-3	8.87835E-12	137.567E-3	137.795E-3	82.5293E-3	39.9379E-12	-1.06109E+0	26.4284E-3
125.984E-3	8.12515E-12	125.796E-3	125.984E-3	-111.704E-3	40.0936E-12	-1.12289E+0	25.7696E-3
114.173E-3	7.32675E-12	113.961E-3	114.173E-3	-28.4421E-3	40.0284E-12	-1.12733E+0	25.0423E-3
102.362E-3	6.47061E-12	102.159E-3	102.362E-3	177.412E-3	39.9237E-12	-1.06483E+0	25.2422E-3
90.5512E-3	5.75415E-12	90.3528E-3	90.5512E-3	-17.8309E-3	39.9839E-12	-1.13368E+0	26.7398E-3
78.7402E-3	5.02446E-12	78.5226E-3	78.7402E-3	-39.2858E-3	40.0812E-12	-1.12271E+0	25.2176E-3
66.9291E-3	4.19614E-12	66.6576E-3	66.9291E-3	46.4170E-3	40.0067E-12	-1.12184E+0	25.0881E-3
55.1181E-3	3.41335E-12	54.8742E-3	55.1181E-3	-62.9603E-3	39.9314E-12	-1.14987E+0	26.9187E-3
43.3071E-3	2.64206E-12	43.0593E-3	43.3071E-3	-93.8106E-3	40.0201E-12	-1.18042E+0	23.6353E-3
31.4961E-3	1.87694E-12	31.2273E-3	31.4961E-3	-16.4847E-3	40.0093E-12	-1.16325E+0	26.9059E-3
19.6850E-3	1.10807E-12	19.4219E-3	19.6850E-3	-8.13532E-3	40.0517E-12	-1.15433E+0	25.2281E-3
7.87402E-3	389.949E-15	7.56897E-3	7.87402E-3	77.5596E-3	39.9376E-12	-1.13966E+0	28.2493E-3
-3.93701E-3	-345.789E-15	-4.30992E-3	-3.93701E-3	-82.5567E-3	40.0168E-12	-1.17438E+0	27.0312E-3
-15.7480E-3	-1.10073E-12	-16.0999E-3	-15.7480E-3	62.1487E-3	40.0274E-12	-1.13871E+0	26.3772E-3
-27.5591E-3	-1.87858E-12	-27.9141E-3	-27.5591E-3	-32.6591E-3	40.0224E-12	-1.18633E+0	24.4368E-3
-39.3701E-3	-2.61109E-12	-39.6746E-3	-39.3701E-3	-41.9883E-3	40.0221E-12	-1.21156E+0	25.1780E-3
-51.1811E-3	-3.33172E-12	-51.5365E-3	-51.1811E-3	-22.4890E-3	39.9742E-12	-1.20240E+0	28.1917E-3
-62.9921E-3	-4.05074E-12	-63.3074E-3	-62.9921E-3	66.7773E-3	39.9864E-12	-1.17906E+0	27.3249E-3
-74.8032E-3	-4.56468E-12	-75.1467E-3	-74.8032E-3	-80.2418E-3	39.9341E-12	-1.22879E+0	30.5099E-3
-86.6142E-3	-4.90618E-12	-87.0057E-3	-86.6142E-3	-85.1930E-3	40.0498E-12	-1.26012E+0	25.8455E-3
-98.4252E-3	-5.23042E-12	-98.7723E-3	-98.4252E-3	52.3933E-3	39.9955E-12	-1.23181E+0	28.4539E-3
-110.236E-3	-5.58631E-12	-110.632E-3	-110.236E-3	7.48391E-3	39.9779E-12	-1.23508E+0	26.9052E-3
-122.047E-3	-6.02084E-12	-122.374E-3	-122.047E-3	-91.2812E-3	39.9146E-12	-1.26137E+0	30.0310E-3
-133.858E-3	-6.48334E-12	-134.239E-3	-133.858E-3	-81.4023E-3	40.0584E-12	-1.28306E+0	25.2347E-3
-145.669E-3	-6.89589E-12	-146.030E-3	-145.669E-3	-137.982E-3	39.9424E-12	-1.33136E+0	27.8579E-3
-157.480E-3	-7.37097E-12	-157.804E-3	-157.480E-3	47.9331E-3	40.0046E-12	-1.27736E+0	27.6145E-3
-169.291E-3	-7.93881E-12	-169.675E-3	-169.291E-3	-57.2164E-3	40.0563E-12	-1.29990E+0	25.2227E-3
-181.102E-3	-8.35181E-12	-181.420E-3	-181.102E-3	-4.18698E-3	39.9998E-12	-1.28953E+0	24.0919E-3
-192.913E-3	-8.74367E-12	-193.232E-3	-192.913E-3	-181.429E-3	39.9444E-12	-1.37219E+0	27.9428E-3
-204.724E-3	-9.13544E-12	-205.059E-3	-204.724E-3	59.4440E-3	40.0178E-12	-1.29978E+0	25.7719E-3
-216.535E-3	-9.72776E-12	-216.862E-3	-216.535E-3	34.8023E-3	40.0256E-12	-1.30839E+0	27.2799E-3
-228.346E-3	-10.0485E-12	-228.691E-3	-228.346E-3	51.0740E-3	40.0569E-12	-1.30016E+0	23.6519E-3
-240.157E-3	-10.5900E-12	-240.489E-3	-240.157E-3	-99.9797E-3	39.9638E-12	-1.36223E+0	26.8985E-3
-251.969E-3	-11.0693E-12	-252.318E-3	-251.969E-3	-30.7363E-3	39.9857E-12	-1.35832E+0	28.2096E-3
-263.780E-3	-11.5548E-12	-264.080E-3	-263.780E-3	-46.4688E-3	39.9832E-12	-1.38744E+0	25.5482E-3
-275.591E-3	-11.9391E-12	-275.878E-3	-275.591E-3	48.9164E-3	39.8841E-12	-1.36130E+0	29.5501E-3
-287.402E-3	-12.9818E-12	-287.723E-3	-287.402E-3	-122.117E-3	40.0780E-12	-1.39940E+0	25.7381E-3
-299.213E-3	-13.2708E-12	-299.510E-3	-299.213E-3	-25.9106E-3	39.9752E-12	-1.40138E+0	27.1469E-3
-311.024E-3	-13.9394E-12	-311.336E-3	-311.024E-3	-75.9337E-3	40.0472E-12	-1.43603E+0	26.0395E-3
-322.835E-3	-14.3737E-12	-323.135E-3	-322.835E-3	-23.9877E-3	39.9692E-12	-1.40826E+0	27.1093E-3
-334.646E-3	-15.0699E-12	-334.911E-3	-334.646E-3	-39.3546E-3	40.0000E-12	-1.43219E+0	25.7297E-3
-346.457E-3	-15.4385E-12	-346.726E-3	-346.457E-3	-15.8035E-3	40.0595E-12	-1.44422E+0	23.8121E-3
-358.268E-3	-15.9890E-12	-358.555E-3	-358.268E-3	-10.6343E-3	39.9395E-12	-1.46295E+0	26.5834E-3
-370.079E-3	-16.6599E-12	-370.355E-3	-370.079E-3	83.9217E-3	40.0603E-12	-1.44165E+0	24.4135E-3
-381.890E-3	-17.2475E-12	-382.123E-3	-381.890E-3	-3.14649E-3	39.9279E-12	-1.47391E+0	28.3894E-3
-393.701E-3	-17.6379E-12	-393.996E-3	-393.701E-3	-100.852E-3	39.9719E-12	-1.50165E+0	28.6169E-3
-405.512E-3	-18.1994E-12	-405.806E-3	-405.512E-3	-26.7000E-3	40.0236E-12	-1.49677E+0	26.8753E-3
-417.323E-3	-18.7716E-12	-417.613E-3	-417.323E-3	-6.79379E-3	39.9649E-12	-1.48006E+0	29.4417E-3
-429.134E-3	-19.3046E-12	-429.427E-3	-429.134E-3	-61.2190E-3	40.0330E-12	-1.52931E+0	25.1475E-3
-440.945E-3	-20.2628E-12	-441.231E-3	-440.945E-3	-185.285E-3	39.9580E-12	-1.58684E+0	28.6647E-3
-452.756E-3	-20.9636E-12	-453.034E-3	-452.756E-3	70.3555E-3	40.0725E-12	-1.52817E+0	25.1825E-3
-464.567E-3	-21.3726E-12	-464.856E-3	-464.567E-3	-121.656E-3	39.9079E-12	-1.61764E+0	27.7482E-3
-476.378E-3	-22.5217E-12	-476.682E-3	-476.378E-3	-90.2269E-3	40.0779E-12	-1.64157E+0	26.4997E-3
-488.189E-3	-23.6750E-12	-488.411E-3	-488.189E-3	39.8812E-3	39.9940E-12	-1.60824E+0	25.7729E-3
-500.000E-3	-24.3203E-12	-500.256E-3	-500.000E-3	43.8488E-3	40.0230E-12	-1.60317E+0	25.3588E-3
