Experiment	bias spectroscopy	
Date	30.11.2015 18:00:41	
User		
X (m)	28.2645E-9	
Y (m)	-165.996E-9	
Z (m)	-3.75578E-9	
Z offset (m)	0E+0	
Settling time (s)	30E-3	
Integration time (s)	200E-3	
Z-Ctrl hold	TRUE	
Final Z (m)	-3.75578E-9	
Filter type	None	
Order		
Cutoff frq		
Current (A)	22.8371E-12	
Z (m)	-3.75578E-9	
Phase (deg)	-218.962E-3	
Amplitude (m)	40.1144E-12	
Frequency Shift (Hz)	-879.051E-3	
Excitation (V)	12.7008E-3	

[DATA]
Bias calc (V)	Current (A)	Applied Voltage measured (V)	Bias (V)	Phase (deg)	Amplitude (m)	Frequency Shift (Hz)	Excitation (V)
1.00000E+0	22.9414E-12	999.321E-3	1.00000E+0	-20.6307E-3	40.0338E-12	-811.569E-3	24.5070E-3
988.189E-3	22.4098E-12	987.528E-3	988.189E-3	77.2326E-3	39.9902E-12	-764.205E-3	26.1307E-3
976.378E-3	27.7669E-12	975.766E-3	976.378E-3	137.879E-3	39.9344E-12	-700.865E-3	26.9361E-3
964.567E-3	25.4784E-12	963.894E-3	964.567E-3	-132.175E-3	39.9963E-12	-784.058E-3	28.2991E-3
952.756E-3	20.5379E-12	952.128E-3	952.756E-3	-130.434E-3	39.9837E-12	-823.676E-3	25.6178E-3
940.945E-3	20.2699E-12	940.292E-3	940.945E-3	-64.6770E-3	39.9393E-12	-816.688E-3	29.2017E-3
929.134E-3	20.1227E-12	928.477E-3	929.134E-3	106.642E-3	39.9943E-12	-756.189E-3	25.5284E-3
917.323E-3	19.6530E-12	916.730E-3	917.323E-3	-20.2712E-3	39.9817E-12	-775.490E-3	26.2498E-3
905.512E-3	19.5115E-12	904.863E-3	905.512E-3	6.93182E-3	40.0413E-12	-780.166E-3	25.8597E-3
893.701E-3	19.0341E-12	893.102E-3	893.701E-3	-40.5323E-3	39.9364E-12	-791.978E-3	29.5760E-3
881.890E-3	18.9933E-12	881.264E-3	881.890E-3	-127.191E-3	40.0012E-12	-825.477E-3	27.2171E-3
870.079E-3	18.4629E-12	869.473E-3	870.079E-3	78.5943E-3	40.0231E-12	-767.433E-3	25.4207E-3
858.268E-3	18.1955E-12	857.644E-3	858.268E-3	146.045E-3	40.0242E-12	-718.554E-3	26.4500E-3
846.457E-3	18.0906E-12	845.814E-3	846.457E-3	-76.5082E-3	40.0003E-12	-777.022E-3	24.2594E-3
834.646E-3	17.4766E-12	834.044E-3	834.646E-3	127.612E-3	40.0031E-12	-701.315E-3	26.9677E-3
822.835E-3	17.6257E-12	822.229E-3	822.835E-3	-43.5360E-3	39.9894E-12	-729.601E-3	27.2674E-3
811.024E-3	17.2067E-12	810.395E-3	811.024E-3	122.269E-3	39.9876E-12	-675.792E-3	26.7708E-3
799.213E-3	16.8770E-12	798.623E-3	799.213E-3	-69.5130E-3	40.0190E-12	-751.654E-3	24.0501E-3
787.402E-3	16.7622E-12	786.792E-3	787.402E-3	135.665E-3	39.9706E-12	-687.234E-3	24.9621E-3
775.591E-3	16.6025E-12	775.007E-3	775.591E-3	126.914E-3	39.9553E-12	-657.485E-3	26.0847E-3
763.780E-3	16.3218E-12	763.186E-3	763.780E-3	22.3021E-3	40.0611E-12	-673.693E-3	23.3281E-3
751.969E-3	22.2458E-12	751.407E-3	751.969E-3	-48.2829E-3	40.0063E-12	-673.439E-3	23.9876E-3
740.157E-3	21.7535E-12	739.609E-3	740.157E-3	-140.748E-3	39.9507E-12	-727.421E-3	26.9326E-3
728.346E-3	21.5577E-12	727.769E-3	728.346E-3	146.636E-3	40.0938E-12	-638.899E-3	24.2098E-3
716.535E-3	21.0146E-12	715.985E-3	716.535E-3	43.1676E-3	40.0122E-12	-645.757E-3	24.8407E-3
704.724E-3	20.8936E-12	704.302E-3	704.724E-3	65.2177E-3	39.9960E-12	-616.621E-3	23.8457E-3
692.913E-3	20.4386E-12	692.503E-3	692.913E-3	1.46904E-3	40.0242E-12	-653.325E-3	23.1540E-3
681.102E-3	20.0690E-12	680.731E-3	681.102E-3	-54.2725E-3	39.9542E-12	-675.390E-3	25.4002E-3
669.291E-3	19.9241E-12	668.919E-3	669.291E-3	8.26689E-3	40.0148E-12	-661.258E-3	25.7095E-3
657.480E-3	19.6562E-12	657.077E-3	657.480E-3	94.8128E-3	39.9726E-12	-623.738E-3	26.0584E-3
645.669E-3	19.4700E-12	645.278E-3	645.669E-3	57.1733E-3	39.9882E-12	-637.577E-3	25.2475E-3
633.858E-3	19.0494E-12	633.464E-3	633.858E-3	-28.1903E-3	40.0206E-12	-658.015E-3	23.7231E-3
622.047E-3	18.9336E-12	621.655E-3	622.047E-3	95.7395E-3	40.0077E-12	-614.892E-3	26.3133E-3
610.236E-3	18.6417E-12	609.897E-3	610.236E-3	46.9356E-3	40.0151E-12	-618.112E-3	25.1069E-3
598.425E-3	18.3663E-12	598.083E-3	598.425E-3	15.0978E-3	40.0484E-12	-610.724E-3	21.1725E-3
586.614E-3	17.8118E-12	586.278E-3	586.614E-3	-102.538E-3	39.9613E-12	-648.720E-3	28.1307E-3
574.803E-3	17.4086E-12	574.453E-3	574.803E-3	65.3194E-3	39.9712E-12	-614.326E-3	27.5362E-3
562.992E-3	17.3243E-12	562.675E-3	562.992E-3	105.100E-3	40.0356E-12	-598.305E-3	24.5479E-3
551.181E-3	16.9000E-12	550.859E-3	551.181E-3	15.6356E-3	39.8900E-12	-606.642E-3	28.5840E-3
539.370E-3	16.6701E-12	538.999E-3	539.370E-3	105.486E-3	40.0587E-12	-597.010E-3	25.8651E-3
527.559E-3	16.3603E-12	527.220E-3	527.559E-3	-42.8099E-3	40.0507E-12	-627.548E-3	26.7058E-3
515.748E-3	15.9027E-12	515.386E-3	515.748E-3	42.6006E-3	40.0237E-12	-619.394E-3	24.3966E-3
503.937E-3	15.5448E-12	503.597E-3	503.937E-3	-16.1308E-3	39.9287E-12	-646.445E-3	28.7555E-3
492.126E-3	15.4435E-12	491.774E-3	492.126E-3	49.5139E-3	40.0592E-12	-609.269E-3	24.8909E-3
480.315E-3	15.0396E-12	479.955E-3	480.315E-3	16.7781E-3	39.9858E-12	-620.760E-3	23.2805E-3
468.504E-3	14.7260E-12	468.158E-3	468.504E-3	13.1521E-3	39.9994E-12	-618.848E-3	26.2462E-3
456.693E-3	14.3917E-12	456.345E-3	456.693E-3	-54.2897E-3	40.0117E-12	-627.957E-3	24.1279E-3
444.882E-3	14.1813E-12	444.570E-3	444.882E-3	4.76258E-3	39.9945E-12	-603.442E-3	29.3347E-3
433.071E-3	13.7739E-12	432.739E-3	433.071E-3	-90.4982E-3	39.9947E-12	-638.256E-3	29.0106E-3
421.260E-3	13.3697E-12	420.929E-3	421.260E-3	-46.0393E-3	40.0423E-12	-631.930E-3	25.0264E-3
409.449E-3	13.2264E-12	409.150E-3	409.449E-3	141.540E-3	39.9980E-12	-560.415E-3	25.3100E-3
397.638E-3	11.0359E-12	397.301E-3	397.638E-3	-258.385E-3	39.9742E-12	-703.049E-3	28.0434E-3
385.827E-3	8.71352E-12	385.547E-3	385.827E-3	114.965E-3	40.0155E-12	-627.163E-3	26.4252E-3
374.016E-3	8.31990E-12	373.697E-3	374.016E-3	289.689E-3	39.9409E-12	-562.924E-3	26.6270E-3
362.205E-3	8.12725E-12	361.900E-3	362.205E-3	56.7604E-3	40.1108E-12	-619.324E-3	23.6678E-3
350.394E-3	7.85294E-12	350.159E-3	350.394E-3	-59.7525E-3	40.0289E-12	-668.448E-3	24.6316E-3
338.583E-3	7.61203E-12	338.303E-3	338.583E-3	-6.83604E-3	39.9843E-12	-660.748E-3	25.1750E-3
326.772E-3	7.41095E-12	326.504E-3	326.772E-3	46.1886E-3	39.9917E-12	-640.944E-3	26.3352E-3
314.961E-3	7.08218E-12	314.676E-3	314.961E-3	38.7163E-3	39.9550E-12	-614.189E-3	30.1076E-3
303.150E-3	6.68862E-12	302.851E-3	303.150E-3	14.9666E-3	39.9544E-12	-610.744E-3	29.1354E-3
291.339E-3	6.59312E-12	291.106E-3	291.339E-3	-17.5024E-3	40.0380E-12	-622.924E-3	28.0504E-3
279.528E-3	6.22625E-12	279.286E-3	279.528E-3	-115.524E-3	40.0273E-12	-688.035E-3	24.9022E-3
267.717E-3	5.96959E-12	267.476E-3	267.717E-3	-13.7722E-3	39.9732E-12	-664.949E-3	25.8123E-3
255.906E-3	5.70516E-12	255.652E-3	255.906E-3	-27.4516E-3	39.9932E-12	-663.253E-3	24.9274E-3
244.094E-3	5.50004E-12	243.876E-3	244.094E-3	38.1701E-3	40.0382E-12	-633.847E-3	25.1689E-3
232.283E-3	5.18581E-12	232.025E-3	232.283E-3	91.3738E-3	40.0112E-12	-630.223E-3	23.2667E-3
220.472E-3	4.86694E-12	220.186E-3	220.472E-3	-160.093E-3	39.9236E-12	-713.642E-3	30.3257E-3
208.661E-3	4.62305E-12	208.401E-3	208.661E-3	-54.8258E-3	40.0499E-12	-682.051E-3	25.8962E-3
196.850E-3	4.26660E-12	196.577E-3	196.850E-3	-29.0414E-3	39.9594E-12	-698.266E-3	26.8134E-3
185.039E-3	4.00892E-12	184.811E-3	185.039E-3	-20.8090E-3	39.9862E-12	-689.859E-3	27.1540E-3
173.228E-3	3.77522E-12	173.001E-3	173.228E-3	-21.5850E-3	39.9559E-12	-700.803E-3	26.8898E-3
161.417E-3	3.41852E-12	161.165E-3	161.417E-3	60.9331E-3	40.0086E-12	-666.870E-3	27.7313E-3
149.606E-3	3.12909E-12	149.338E-3	149.606E-3	79.8196E-3	40.0333E-12	-651.805E-3	25.3759E-3
137.795E-3	2.86420E-12	137.545E-3	137.795E-3	-45.9722E-3	40.0443E-12	-682.159E-3	24.6656E-3
125.984E-3	2.55987E-12	125.781E-3	125.984E-3	67.0315E-3	40.0074E-12	-671.492E-3	25.5516E-3
114.173E-3	2.31099E-12	113.949E-3	114.173E-3	119.870E-3	40.0364E-12	-648.563E-3	27.0731E-3
102.362E-3	2.02121E-12	102.148E-3	102.362E-3	-157.326E-3	39.9225E-12	-736.553E-3	29.8939E-3
90.5512E-3	1.74552E-12	90.3288E-3	90.5512E-3	-39.2489E-3	39.9985E-12	-725.446E-3	26.0861E-3
78.7402E-3	1.50030E-12	78.5035E-3	78.7402E-3	21.0253E-3	40.0595E-12	-695.976E-3	24.7493E-3
66.9291E-3	1.23946E-12	66.6266E-3	66.9291E-3	-22.4173E-3	39.9381E-12	-717.664E-3	26.5562E-3
55.1181E-3	986.782E-15	54.8578E-3	55.1181E-3	-20.9075E-3	40.0289E-12	-728.906E-3	24.5168E-3
43.3071E-3	745.533E-15	43.0368E-3	43.3071E-3	32.5592E-3	39.9006E-12	-691.679E-3	26.9174E-3
31.4961E-3	492.107E-15	31.2077E-3	31.4961E-3	27.4738E-3	40.0328E-12	-706.507E-3	25.2583E-3
19.6850E-3	263.941E-15	19.4049E-3	19.6850E-3	-24.8681E-3	39.9448E-12	-738.896E-3	26.7907E-3
7.87402E-3	37.1963E-15	7.54821E-3	7.87402E-3	126.692E-3	39.9468E-12	-670.584E-3	29.7991E-3
-3.93701E-3	-189.416E-15	-4.33309E-3	-3.93701E-3	62.0552E-3	40.0155E-12	-704.320E-3	25.8715E-3
-15.7480E-3	-412.714E-15	-16.1228E-3	-15.7480E-3	-11.6628E-3	39.9848E-12	-733.505E-3	27.3458E-3
-27.5591E-3	-644.413E-15	-27.9300E-3	-27.5591E-3	66.7309E-3	39.9427E-12	-713.606E-3	29.1261E-3
-39.3701E-3	-873.091E-15	-39.6956E-3	-39.3701E-3	20.2000E-3	40.0049E-12	-729.625E-3	28.7178E-3
-51.1811E-3	-1.09367E-12	-51.5471E-3	-51.1811E-3	-76.7119E-3	40.0226E-12	-775.282E-3	25.7826E-3
-62.9921E-3	-1.29042E-12	-63.3170E-3	-62.9921E-3	-15.1196E-3	39.9167E-12	-738.169E-3	27.9580E-3
-74.8032E-3	-1.46160E-12	-75.1576E-3	-74.8032E-3	155.851E-3	40.0696E-12	-689.207E-3	24.3334E-3
-86.6142E-3	-1.54938E-12	-87.0141E-3	-86.6142E-3	-213.884E-3	39.9682E-12	-819.396E-3	26.9005E-3
-98.4252E-3	-1.63582E-12	-98.7945E-3	-98.4252E-3	-32.2386E-6	39.9554E-12	-753.492E-3	28.1837E-3
-110.236E-3	-1.74259E-12	-110.646E-3	-110.236E-3	-62.8328E-3	39.9998E-12	-795.432E-3	26.3623E-3
-122.047E-3	-1.83905E-12	-122.386E-3	-122.047E-3	82.9375E-3	40.0407E-12	-772.456E-3	23.8866E-3
-133.858E-3	-1.90324E-12	-134.232E-3	-133.858E-3	72.7253E-3	39.9697E-12	-789.054E-3	26.5802E-3
-145.669E-3	-1.97540E-12	-146.042E-3	-145.669E-3	-38.8232E-3	39.9358E-12	-832.843E-3	25.2434E-3
-157.480E-3	-2.03070E-12	-157.809E-3	-157.480E-3	80.4514E-3	39.9895E-12	-795.389E-3	27.6706E-3
-169.291E-3	-2.11797E-12	-169.685E-3	-169.291E-3	9.95204E-3	40.0295E-12	-800.133E-3	24.1216E-3
-181.102E-3	-2.14219E-12	-181.425E-3	-181.102E-3	-94.5392E-3	39.9813E-12	-833.204E-3	28.3986E-3
-192.913E-3	-2.22371E-12	-193.237E-3	-192.913E-3	-58.8964E-3	39.9494E-12	-841.109E-3	28.0595E-3
-204.724E-3	-2.32180E-12	-205.064E-3	-204.724E-3	-141.329E-3	40.0010E-12	-896.262E-3	30.1980E-3
-216.535E-3	-2.40487E-12	-216.864E-3	-216.535E-3	77.6776E-3	40.0104E-12	-827.979E-3	27.8831E-3
-228.346E-3	-2.48298E-12	-228.683E-3	-228.346E-3	55.8378E-3	40.0158E-12	-830.147E-3	27.2020E-3
-240.157E-3	-2.57722E-12	-240.482E-3	-240.157E-3	-28.9255E-3	39.9668E-12	-848.365E-3	28.3551E-3
-251.969E-3	-2.65918E-12	-252.308E-3	-251.969E-3	1.15895E-3	40.0048E-12	-878.477E-3	26.3301E-3
-263.780E-3	-2.77711E-12	-264.077E-3	-263.780E-3	-37.4429E-3	39.9236E-12	-886.915E-3	27.9676E-3
-275.591E-3	-2.84180E-12	-275.889E-3	-275.591E-3	101.930E-3	39.9809E-12	-848.601E-3	26.8904E-3
-287.402E-3	-2.91219E-12	-287.721E-3	-287.402E-3	-88.8127E-3	39.9577E-12	-907.333E-3	29.1318E-3
-299.213E-3	-2.99084E-12	-299.508E-3	-299.213E-3	-59.1998E-3	40.0018E-12	-907.796E-3	26.7094E-3
-311.024E-3	-3.12851E-12	-311.333E-3	-311.024E-3	9.44734E-3	39.9918E-12	-907.811E-3	26.2225E-3
-322.835E-3	-3.19936E-12	-323.129E-3	-322.835E-3	63.9765E-3	40.0173E-12	-887.060E-3	26.6114E-3
-334.646E-3	-3.31393E-12	-334.909E-3	-334.646E-3	1.04049E-3	39.9185E-12	-895.122E-3	30.1639E-3
-346.457E-3	-3.43707E-12	-346.721E-3	-346.457E-3	16.3286E-3	40.0430E-12	-909.601E-3	26.1425E-3
-358.268E-3	-3.51280E-12	-358.565E-3	-358.268E-3	-146.374E-3	39.9635E-12	-944.113E-3	29.7261E-3
-370.079E-3	-3.55312E-12	-370.370E-3	-370.079E-3	-47.1468E-3	40.0157E-12	-959.273E-3	25.0894E-3
-381.890E-3	-3.61717E-12	-382.131E-3	-381.890E-3	18.5884E-3	39.9712E-12	-950.377E-3	27.6105E-3
-393.701E-3	-3.78724E-12	-394.011E-3	-393.701E-3	5.99603E-3	40.0217E-12	-955.091E-3	24.3377E-3
-405.512E-3	-3.84418E-12	-405.825E-3	-405.512E-3	-115.745E-3	39.9922E-12	-1.01377E+0	28.7194E-3
-417.323E-3	-3.93955E-12	-417.625E-3	-417.323E-3	180.833E-3	40.0231E-12	-926.866E-3	26.5472E-3
-429.134E-3	-4.02990E-12	-429.438E-3	-429.134E-3	-36.8002E-3	39.9855E-12	-994.271E-3	28.4034E-3
-440.945E-3	-4.07793E-12	-441.228E-3	-440.945E-3	-52.1041E-3	39.9354E-12	-999.156E-3	27.3601E-3
-452.756E-3	-4.18062E-12	-453.041E-3	-452.756E-3	-61.5992E-3	40.0220E-12	-1.03675E+0	26.1053E-3
-464.567E-3	-4.23901E-12	-464.858E-3	-464.567E-3	82.3833E-3	39.9882E-12	-996.813E-3	28.0597E-3
-476.378E-3	-4.28946E-12	-476.679E-3	-476.378E-3	-17.9111E-3	40.0761E-12	-1.02177E+0	26.3540E-3
-488.189E-3	-4.30960E-12	-488.409E-3	-488.189E-3	-43.0951E-3	40.0265E-12	-1.03535E+0	23.1861E-3
-500.000E-3	-4.34209E-12	-500.242E-3	-500.000E-3	-45.1067E-3	39.9431E-12	-1.05191E+0	27.2611E-3
