Experiment	bias spectroscopy	
Date	30.11.2015 18:04:45	
User		
X (m)	28.4062E-9	
Y (m)	-166.46E-9	
Z (m)	-3.75578E-9	
Z offset (m)	0E+0	
Settling time (s)	30E-3	
Integration time (s)	200E-3	
Z-Ctrl hold	TRUE	
Final Z (m)	-3.75578E-9	
Filter type	None	
Order		
Cutoff frq		
Current (A)	24.7215E-12	
Z (m)	-3.75578E-9	
Phase (deg)	-201.933E-3	
Amplitude (m)	40.2114E-12	
Frequency Shift (Hz)	-847.484E-3	
Excitation (V)	13.7436E-3	

[DATA]
Bias calc (V)	Current (A)	Applied Voltage measured (V)	Bias (V)	Phase (deg)	Amplitude (m)	Frequency Shift (Hz)	Excitation (V)
1.00000E+0	28.8058E-12	999.326E-3	1.00000E+0	33.2713E-3	40.0469E-12	-761.526E-3	24.6499E-3
988.189E-3	28.1181E-12	987.541E-3	988.189E-3	-185.441E-3	39.9434E-12	-841.775E-3	27.1002E-3
976.378E-3	27.4647E-12	975.773E-3	976.378E-3	51.9448E-3	39.9535E-12	-759.550E-3	26.3768E-3
964.567E-3	27.5733E-12	963.905E-3	964.567E-3	3.74051E-3	40.0325E-12	-776.903E-3	21.7424E-3
952.756E-3	27.2081E-12	952.149E-3	952.756E-3	183.885E-3	40.0350E-12	-704.132E-3	27.0638E-3
940.945E-3	26.8582E-12	940.312E-3	940.945E-3	84.9480E-3	39.9843E-12	-698.502E-3	24.3452E-3
929.134E-3	26.4091E-12	928.491E-3	929.134E-3	-84.4493E-3	39.9750E-12	-735.567E-3	25.5787E-3
917.323E-3	26.0622E-12	916.740E-3	917.323E-3	-9.40562E-3	40.0087E-12	-719.944E-3	26.9692E-3
905.512E-3	26.0434E-12	904.885E-3	905.512E-3	33.4806E-3	40.1035E-12	-702.221E-3	20.6709E-3
893.701E-3	25.6989E-12	893.122E-3	893.701E-3	14.4399E-3	39.9813E-12	-742.481E-3	25.0865E-3
881.890E-3	25.0919E-12	881.283E-3	881.890E-3	147.237E-3	39.9942E-12	-671.821E-3	29.4990E-3
870.079E-3	25.1070E-12	869.480E-3	870.079E-3	45.5866E-3	39.9782E-12	-675.331E-3	28.3241E-3
858.268E-3	24.5421E-12	857.658E-3	858.268E-3	-104.073E-3	40.0597E-12	-731.602E-3	25.8199E-3
846.457E-3	24.2672E-12	845.816E-3	846.457E-3	-23.5769E-3	40.0420E-12	-712.811E-3	23.9050E-3
834.646E-3	23.8119E-12	834.047E-3	834.646E-3	-12.0654E-3	39.9454E-12	-714.976E-3	27.7734E-3
822.835E-3	24.0434E-12	822.230E-3	822.835E-3	183.590E-3	40.0052E-12	-652.162E-3	28.2731E-3
811.024E-3	23.3429E-12	810.409E-3	811.024E-3	-27.3292E-3	39.9438E-12	-713.482E-3	26.7607E-3
799.213E-3	22.7405E-12	798.641E-3	799.213E-3	45.5839E-3	39.9353E-12	-695.937E-3	28.9666E-3
787.402E-3	23.2014E-12	786.810E-3	787.402E-3	-94.1262E-3	40.0339E-12	-732.411E-3	27.8978E-3
775.591E-3	22.4667E-12	775.015E-3	775.591E-3	108.953E-3	40.0127E-12	-673.783E-3	27.1578E-3
763.780E-3	22.5963E-12	763.189E-3	763.780E-3	76.9124E-3	40.0365E-12	-667.322E-3	23.1068E-3
751.969E-3	21.8809E-12	751.412E-3	751.969E-3	-56.3599E-3	39.9510E-12	-711.397E-3	24.5515E-3
740.157E-3	21.8465E-12	739.604E-3	740.157E-3	113.721E-3	39.9813E-12	-651.273E-3	26.6686E-3
728.346E-3	21.7532E-12	727.767E-3	728.346E-3	-77.7845E-3	40.0579E-12	-691.680E-3	22.1871E-3
716.535E-3	21.2495E-12	715.982E-3	716.535E-3	44.5690E-3	39.9053E-12	-646.215E-3	26.4159E-3
704.724E-3	21.2605E-12	704.287E-3	704.724E-3	-63.7502E-3	40.0037E-12	-679.267E-3	26.2582E-3
692.913E-3	20.9756E-12	692.495E-3	692.913E-3	80.5662E-3	40.0379E-12	-621.320E-3	24.4975E-3
681.102E-3	20.4633E-12	680.713E-3	681.102E-3	44.3701E-3	39.9548E-12	-629.013E-3	27.3262E-3
669.291E-3	20.1332E-12	668.898E-3	669.291E-3	-159.344E-3	39.9617E-12	-707.332E-3	25.2227E-3
657.480E-3	19.8498E-12	657.066E-3	657.480E-3	149.840E-3	39.9691E-12	-623.449E-3	28.3533E-3
645.669E-3	19.8146E-12	645.257E-3	645.669E-3	-14.4992E-3	39.9934E-12	-640.947E-3	27.1092E-3
633.858E-3	19.4802E-12	633.448E-3	633.858E-3	-175.328E-3	40.0268E-12	-684.381E-3	26.6616E-3
622.047E-3	18.9694E-12	621.644E-3	622.047E-3	73.3679E-3	39.9863E-12	-621.384E-3	25.3587E-3
610.236E-3	19.0230E-12	609.879E-3	610.236E-3	81.3994E-3	40.0663E-12	-614.942E-3	26.2898E-3
598.425E-3	18.4791E-12	598.070E-3	598.425E-3	-98.3994E-3	40.0201E-12	-667.678E-3	26.2456E-3
586.614E-3	18.2281E-12	586.258E-3	586.614E-3	35.0860E-3	40.0167E-12	-631.004E-3	26.2095E-3
574.803E-3	18.1080E-12	574.448E-3	574.803E-3	-45.8457E-3	40.0562E-12	-669.691E-3	24.6551E-3
562.992E-3	17.7098E-12	562.666E-3	562.992E-3	193.726E-3	39.9393E-12	-569.513E-3	27.0317E-3
551.181E-3	17.4283E-12	550.862E-3	551.181E-3	-2.60992E-3	40.0420E-12	-612.872E-3	21.5853E-3
539.370E-3	17.5519E-12	538.998E-3	539.370E-3	-15.0077E-3	39.9398E-12	-630.235E-3	28.7436E-3
527.559E-3	13.3346E-12	527.218E-3	527.559E-3	-16.5310E-3	40.0200E-12	-649.285E-3	25.5751E-3
515.748E-3	12.9670E-12	515.378E-3	515.748E-3	67.2862E-3	40.0575E-12	-616.585E-3	25.4954E-3
503.937E-3	12.6127E-12	503.588E-3	503.937E-3	-37.7398E-3	39.8884E-12	-658.155E-3	26.0894E-3
492.126E-3	12.4717E-12	491.760E-3	492.126E-3	52.6495E-3	39.9405E-12	-657.345E-3	28.1356E-3
480.315E-3	12.1782E-12	479.952E-3	480.315E-3	-34.6264E-3	40.0119E-12	-672.324E-3	25.3825E-3
468.504E-3	11.8098E-12	468.163E-3	468.504E-3	-31.7520E-3	40.0038E-12	-671.790E-3	25.9461E-3
456.693E-3	11.5683E-12	456.354E-3	456.693E-3	66.5609E-3	39.9443E-12	-649.096E-3	28.5372E-3
444.882E-3	11.3043E-12	444.587E-3	444.882E-3	107.152E-3	40.0376E-12	-606.298E-3	25.7201E-3
433.071E-3	11.0073E-12	432.757E-3	433.071E-3	-121.387E-3	39.9618E-12	-691.308E-3	25.1814E-3
421.260E-3	10.7828E-12	420.947E-3	421.260E-3	-18.5903E-3	39.9936E-12	-678.761E-3	30.6847E-3
409.449E-3	10.4839E-12	409.162E-3	409.449E-3	35.3688E-3	40.0378E-12	-637.715E-3	25.2915E-3
397.638E-3	10.1383E-12	397.311E-3	397.638E-3	-21.8021E-3	39.9636E-12	-653.959E-3	26.8303E-3
385.827E-3	9.84686E-12	385.550E-3	385.827E-3	-35.4218E-3	39.9571E-12	-673.739E-3	27.2654E-3
374.016E-3	9.68051E-12	373.701E-3	374.016E-3	-81.0192E-3	39.9842E-12	-677.640E-3	27.0271E-3
362.205E-3	9.38154E-12	361.904E-3	362.205E-3	-28.9555E-3	39.9179E-12	-685.725E-3	27.7311E-3
350.394E-3	9.27396E-12	350.155E-3	350.394E-3	-44.6527E-3	40.0455E-12	-682.196E-3	24.9402E-3
338.583E-3	8.87539E-12	338.300E-3	338.583E-3	-28.7422E-3	39.9330E-12	-678.027E-3	27.1406E-3
326.772E-3	8.40849E-12	326.508E-3	326.772E-3	-21.9797E-3	40.0129E-12	-682.573E-3	27.2144E-3
314.961E-3	8.11735E-12	314.679E-3	314.961E-3	57.7925E-3	39.9445E-12	-650.447E-3	27.2382E-3
303.150E-3	7.92182E-12	302.862E-3	303.150E-3	-13.4687E-3	40.0357E-12	-656.278E-3	25.1874E-3
291.339E-3	7.64526E-12	291.113E-3	291.339E-3	-23.9187E-3	40.0909E-12	-649.568E-3	22.7916E-3
279.528E-3	7.21153E-12	279.292E-3	279.528E-3	-121.078E-3	39.9692E-12	-726.918E-3	26.2591E-3
267.717E-3	7.09411E-12	267.474E-3	267.717E-3	12.7947E-3	40.0118E-12	-685.388E-3	25.1160E-3
255.906E-3	6.68516E-12	255.655E-3	255.906E-3	118.076E-3	40.0471E-12	-626.810E-3	24.7321E-3
244.094E-3	6.40784E-12	243.883E-3	244.094E-3	15.2305E-3	40.0287E-12	-640.550E-3	24.0206E-3
232.283E-3	6.03631E-12	232.025E-3	232.283E-3	-220.294E-3	40.0020E-12	-729.698E-3	25.9226E-3
220.472E-3	5.73742E-12	220.196E-3	220.472E-3	82.4735E-3	40.0724E-12	-656.041E-3	24.4610E-3
208.661E-3	5.44004E-12	208.416E-3	208.661E-3	-40.8987E-3	39.9864E-12	-691.714E-3	25.1506E-3
196.850E-3	5.09080E-12	196.577E-3	196.850E-3	171.749E-3	39.9929E-12	-617.527E-3	26.7220E-3
185.039E-3	4.71539E-12	184.806E-3	185.039E-3	81.2183E-3	40.0535E-12	-638.296E-3	22.9765E-3
173.228E-3	4.38510E-12	173.001E-3	173.228E-3	-126.799E-3	39.9546E-12	-700.945E-3	27.4473E-3
161.417E-3	3.95837E-12	161.171E-3	161.417E-3	-7.86891E-3	39.9674E-12	-711.544E-3	27.7575E-3
149.606E-3	3.63505E-12	149.341E-3	149.606E-3	123.006E-3	40.0303E-12	-672.791E-3	27.1892E-3
137.795E-3	3.24193E-12	137.543E-3	137.795E-3	132.161E-3	39.9493E-12	-645.973E-3	28.6532E-3
125.984E-3	2.94742E-12	125.790E-3	125.984E-3	-168.081E-3	40.0649E-12	-729.449E-3	26.0669E-3
114.173E-3	2.63765E-12	113.946E-3	114.173E-3	57.1245E-3	40.0376E-12	-669.303E-3	23.5741E-3
102.362E-3	2.27849E-12	102.143E-3	102.362E-3	30.0895E-3	39.9526E-12	-685.139E-3	27.8364E-3
90.5512E-3	2.00274E-12	90.3355E-3	90.5512E-3	9.51297E-3	39.9814E-12	-686.200E-3	27.4575E-3
78.7402E-3	1.71906E-12	78.4983E-3	78.7402E-3	-46.5271E-3	39.9789E-12	-711.025E-3	27.7500E-3
66.9291E-3	1.46790E-12	66.6334E-3	66.9291E-3	-93.7459E-3	39.9764E-12	-749.895E-3	25.9283E-3
55.1181E-3	1.19367E-12	54.8522E-3	55.1181E-3	-13.1660E-3	40.0763E-12	-747.279E-3	25.0348E-3
43.3071E-3	919.189E-15	43.0367E-3	43.3071E-3	22.5979E-3	39.9705E-12	-710.721E-3	26.5678E-3
31.4961E-3	626.891E-15	31.2030E-3	31.4961E-3	-8.90349E-3	39.9879E-12	-734.896E-3	26.4545E-3
19.6850E-3	321.085E-15	19.4080E-3	19.6850E-3	132.241E-3	39.9840E-12	-675.267E-3	26.0185E-3
7.87402E-3	61.4277E-15	7.55453E-3	7.87402E-3	6.93714E-3	39.9459E-12	-690.409E-3	26.7432E-3
-3.93701E-3	-204.682E-15	-4.33372E-3	-3.93701E-3	-86.1475E-3	39.9690E-12	-733.592E-3	27.0845E-3
-15.7480E-3	-463.196E-15	-16.1153E-3	-15.7480E-3	20.6395E-3	40.0201E-12	-727.105E-3	25.6017E-3
-27.5591E-3	-744.269E-15	-27.9317E-3	-27.5591E-3	-111.641E-3	39.9770E-12	-767.693E-3	26.9205E-3
-39.3701E-3	-1.02063E-12	-39.7022E-3	-39.3701E-3	-31.0038E-3	40.0570E-12	-757.251E-3	25.8735E-3
-51.1811E-3	-1.27382E-12	-51.5578E-3	-51.1811E-3	-43.0613E-3	39.9951E-12	-777.781E-3	24.9116E-3
-62.9921E-3	-1.49782E-12	-63.3264E-3	-62.9921E-3	10.9649E-3	39.9731E-12	-778.182E-3	28.0108E-3
-74.8032E-3	-1.67965E-12	-75.1707E-3	-74.8032E-3	65.2354E-3	40.0298E-12	-760.008E-3	25.4445E-3
-86.6142E-3	-1.77524E-12	-87.0228E-3	-86.6142E-3	-75.9992E-3	39.9673E-12	-802.361E-3	26.9151E-3
-98.4252E-3	-1.91059E-12	-98.7978E-3	-98.4252E-3	-8.20928E-3	40.0701E-12	-799.647E-3	26.0860E-3
-110.236E-3	-2.01263E-12	-110.655E-3	-110.236E-3	-78.7599E-3	39.9910E-12	-840.262E-3	29.3600E-3
-122.047E-3	-2.09486E-12	-122.396E-3	-122.047E-3	78.7603E-3	39.9737E-12	-761.672E-3	28.2640E-3
-133.858E-3	-2.17056E-12	-134.246E-3	-133.858E-3	-46.6901E-3	40.0511E-12	-800.328E-3	26.6701E-3
-145.669E-3	-2.21608E-12	-146.047E-3	-145.669E-3	-19.1276E-3	40.0496E-12	-788.329E-3	23.8696E-3
-157.480E-3	-2.30922E-12	-157.826E-3	-157.480E-3	-144.371E-3	40.0178E-12	-860.568E-3	26.2291E-3
-169.291E-3	-2.36449E-12	-169.698E-3	-169.291E-3	-88.8911E-3	39.9572E-12	-880.585E-3	27.1488E-3
-181.102E-3	-2.45321E-12	-181.447E-3	-181.102E-3	73.2321E-3	40.0041E-12	-828.195E-3	27.7839E-3
-192.913E-3	-2.54466E-12	-193.252E-3	-192.913E-3	-43.4314E-3	40.0785E-12	-854.653E-3	20.9446E-3
-204.724E-3	-2.61143E-12	-205.077E-3	-204.724E-3	-111.380E-3	39.9575E-12	-889.637E-3	25.8214E-3
-216.535E-3	-2.73191E-12	-216.879E-3	-216.535E-3	55.9669E-3	39.9863E-12	-835.172E-3	24.3803E-3
-228.346E-3	-2.80975E-12	-228.705E-3	-228.346E-3	-116.043E-3	40.0050E-12	-891.905E-3	23.9620E-3
-240.157E-3	-2.89890E-12	-240.496E-3	-240.157E-3	2.88724E-3	39.9527E-12	-869.393E-3	27.8335E-3
-251.969E-3	-3.01804E-12	-252.315E-3	-251.969E-3	-65.9673E-3	39.9796E-12	-903.262E-3	29.0621E-3
-263.780E-3	-3.13634E-12	-264.090E-3	-263.780E-3	90.1312E-3	40.0218E-12	-863.925E-3	27.3653E-3
-275.591E-3	-3.19728E-12	-275.886E-3	-275.591E-3	-132.011E-3	40.0497E-12	-938.271E-3	25.8235E-3
-287.402E-3	-3.29972E-12	-287.724E-3	-287.402E-3	9.44349E-3	39.9535E-12	-902.893E-3	27.2376E-3
-299.213E-3	-3.38629E-12	-299.523E-3	-299.213E-3	-9.31069E-3	39.9565E-12	-894.583E-3	26.3495E-3
-311.024E-3	-3.50365E-12	-311.349E-3	-311.024E-3	-74.4765E-3	40.0608E-12	-922.941E-3	26.1897E-3
-322.835E-3	-3.61478E-12	-323.135E-3	-322.835E-3	56.2167E-3	39.9223E-12	-910.270E-3	27.9345E-3
-334.646E-3	-3.70486E-12	-334.910E-3	-334.646E-3	-92.6487E-3	40.0523E-12	-943.013E-3	25.6854E-3
-346.457E-3	-3.85746E-12	-346.728E-3	-346.457E-3	-112.557E-3	40.0030E-12	-977.990E-3	24.7426E-3
-358.268E-3	-3.97708E-12	-358.568E-3	-358.268E-3	-59.1807E-3	40.0051E-12	-983.754E-3	25.6805E-3
-370.079E-3	-3.95739E-12	-370.369E-3	-370.079E-3	-31.7477E-3	39.9818E-12	-993.739E-3	29.3503E-3
-381.890E-3	-4.13878E-12	-382.145E-3	-381.890E-3	97.4849E-3	39.9588E-12	-966.498E-3	27.9363E-3
-393.701E-3	-4.20342E-12	-394.010E-3	-393.701E-3	55.9466E-3	40.0034E-12	-952.996E-3	27.5257E-3
-405.512E-3	-4.32043E-12	-405.820E-3	-405.512E-3	-20.7990E-3	40.0359E-12	-982.409E-3	27.3125E-3
-417.323E-3	-4.48362E-12	-417.629E-3	-417.323E-3	-167.239E-3	39.9450E-12	-1.03719E+0	26.4545E-3
-429.134E-3	-4.45468E-12	-429.433E-3	-429.134E-3	-43.0363E-3	40.0368E-12	-1.02354E+0	24.9954E-3
-440.945E-3	-4.59738E-12	-441.228E-3	-440.945E-3	-35.1422E-3	39.9565E-12	-1.02666E+0	25.5122E-3
-452.756E-3	-4.64367E-12	-453.034E-3	-452.756E-3	53.9701E-3	40.0243E-12	-1.01352E+0	25.6068E-3
-464.567E-3	-4.65660E-12	-464.863E-3	-464.567E-3	101.700E-3	40.0024E-12	-1.01689E+0	30.9084E-3
-476.378E-3	-4.72719E-12	-476.681E-3	-476.378E-3	-130.963E-3	40.0043E-12	-1.07902E+0	25.1596E-3
-488.189E-3	-4.77488E-12	-488.415E-3	-488.189E-3	-163.165E-3	39.9327E-12	-1.11327E+0	29.3289E-3
-500.000E-3	-4.83219E-12	-500.259E-3	-500.000E-3	131.866E-3	40.0922E-12	-1.03884E+0	26.1935E-3
