Experiment	bias spectroscopy	
Date	30.11.2015 16:59:50	
User		
X (m)	28.6028E-9	
Y (m)	-165.993E-9	
Z (m)	-3.79588E-9	
Z offset (m)	0E+0	
Settling time (s)	30E-3	
Integration time (s)	200E-3	
Z-Ctrl hold	TRUE	
Final Z (m)	-3.79893E-9	
Filter type	None	
Order		
Cutoff frq		
Current (A)	101.002E-12	
Z (m)	-3.79462E-9	
Phase (deg)	-1.10709E+0	
Amplitude (m)	39.8844E-12	
Frequency Shift (Hz)	-958.622E-3	
Excitation (V)	34.6561E-3	

[DATA]
Bias calc (V)	Current (A)	Applied Voltage measured (V)	Bias (V)	Phase (deg)	Amplitude (m)	Frequency Shift (Hz)	Excitation (V)
1.00000E+0	100.112E-12	999.328E-3	1.00000E+0	-328.779E-3	40.0630E-12	-713.339E-3	21.6041E-3
988.189E-3	99.1902E-12	987.530E-3	988.189E-3	69.3723E-3	39.9527E-12	-602.622E-3	24.1759E-3
976.378E-3	97.7319E-12	975.770E-3	976.378E-3	-168.906E-3	39.9494E-12	-694.135E-3	20.5763E-3
964.567E-3	96.9461E-12	963.902E-3	964.567E-3	141.705E-3	40.0168E-12	-592.782E-3	21.6950E-3
952.756E-3	95.6071E-12	952.154E-3	952.756E-3	-87.9699E-3	40.0361E-12	-673.948E-3	20.4766E-3
940.945E-3	95.9805E-12	940.307E-3	940.945E-3	-129.190E-3	40.2051E-12	-666.890E-3	20.1045E-3
929.134E-3	93.9765E-12	928.481E-3	929.134E-3	-82.0676E-3	40.0135E-12	-660.206E-3	23.0318E-3
917.323E-3	93.1153E-12	916.731E-3	917.323E-3	41.5076E-3	39.9808E-12	-634.855E-3	25.2180E-3
905.512E-3	92.2147E-12	904.872E-3	905.512E-3	-25.8248E-3	39.9967E-12	-626.678E-3	21.7106E-3
893.701E-3	91.0680E-12	893.119E-3	893.701E-3	187.194E-3	39.9683E-12	-569.916E-3	21.7387E-3
881.890E-3	89.8141E-12	881.273E-3	881.890E-3	-175.969E-3	39.9837E-12	-675.642E-3	20.5617E-3
870.079E-3	90.1205E-12	869.473E-3	870.079E-3	-15.6383E-3	40.0031E-12	-588.446E-3	22.2032E-3
858.268E-3	88.5271E-12	857.648E-3	858.268E-3	-137.760E-3	39.9745E-12	-661.924E-3	22.2201E-3
846.457E-3	87.6008E-12	845.809E-3	846.457E-3	328.632E-3	39.9756E-12	-492.753E-3	24.2823E-3
834.646E-3	87.1440E-12	834.040E-3	834.646E-3	-24.5341E-3	40.1262E-12	-578.117E-3	21.5155E-3
822.835E-3	86.4696E-12	822.244E-3	822.835E-3	-75.8208E-3	40.0980E-12	-624.251E-3	21.3520E-3
811.024E-3	85.2173E-12	810.413E-3	811.024E-3	7.04790E-3	39.9503E-12	-579.828E-3	25.7246E-3
799.213E-3	84.7634E-12	798.640E-3	799.213E-3	86.4174E-3	40.0631E-12	-531.656E-3	22.1711E-3
787.402E-3	83.5675E-12	786.804E-3	787.402E-3	-135.292E-3	40.0552E-12	-633.134E-3	17.8241E-3
775.591E-3	82.2344E-12	775.016E-3	775.591E-3	95.0923E-3	39.9247E-12	-560.775E-3	25.6333E-3
763.780E-3	82.0742E-12	763.192E-3	763.780E-3	145.019E-3	40.0200E-12	-556.207E-3	21.2233E-3
751.969E-3	80.7877E-12	751.412E-3	751.969E-3	-172.753E-3	40.0165E-12	-675.428E-3	20.2611E-3
740.157E-3	80.2091E-12	739.615E-3	740.157E-3	62.3055E-3	40.1148E-12	-578.618E-3	22.6055E-3
728.346E-3	78.5356E-12	727.780E-3	728.346E-3	-106.525E-3	39.9642E-12	-633.982E-3	22.7332E-3
716.535E-3	77.5658E-12	715.991E-3	716.535E-3	152.497E-3	39.9419E-12	-540.918E-3	25.1251E-3
704.724E-3	77.7401E-12	704.299E-3	704.724E-3	105.298E-3	40.0433E-12	-514.181E-3	24.5334E-3
692.913E-3	77.1303E-12	692.503E-3	692.913E-3	-198.917E-3	40.0181E-12	-646.292E-3	22.0915E-3
681.102E-3	75.8489E-12	680.721E-3	681.102E-3	-69.4191E-3	39.9320E-12	-612.579E-3	23.6728E-3
669.291E-3	75.2914E-12	668.903E-3	669.291E-3	107.938E-3	40.0232E-12	-564.844E-3	22.8454E-3
657.480E-3	74.4618E-12	657.063E-3	657.480E-3	-14.9975E-3	40.0141E-12	-578.010E-3	23.7199E-3
645.669E-3	73.3047E-12	645.258E-3	645.669E-3	-207.806E-3	39.9899E-12	-638.696E-3	23.6072E-3
633.858E-3	72.6500E-12	633.455E-3	633.858E-3	67.1981E-3	39.9653E-12	-577.041E-3	23.5031E-3
622.047E-3	71.2853E-12	621.649E-3	622.047E-3	219.841E-3	40.0606E-12	-533.878E-3	22.9101E-3
610.236E-3	70.9522E-12	609.877E-3	610.236E-3	143.529E-6	39.9865E-12	-542.732E-3	25.3274E-3
598.425E-3	69.7103E-12	598.070E-3	598.425E-3	-197.130E-3	39.9192E-12	-609.773E-3	25.2624E-3
586.614E-3	68.9875E-12	586.265E-3	586.614E-3	74.6635E-3	40.0376E-12	-552.922E-3	21.8318E-3
574.803E-3	67.8459E-12	574.443E-3	574.803E-3	-1.72336E-3	39.7720E-12	-570.267E-3	29.3926E-3
562.992E-3	67.7313E-12	562.673E-3	562.992E-3	47.9051E-3	40.1525E-12	-548.116E-3	20.0287E-3
551.181E-3	65.9761E-12	550.852E-3	551.181E-3	-176.921E-3	39.9731E-12	-631.782E-3	24.2338E-3
539.370E-3	65.1015E-12	538.976E-3	539.370E-3	151.852E-3	40.0421E-12	-536.794E-3	22.8397E-3
527.559E-3	64.1014E-12	527.188E-3	527.559E-3	869.673E-6	39.9664E-12	-580.987E-3	24.8550E-3
515.748E-3	62.2509E-12	515.366E-3	515.748E-3	185.793E-3	39.8123E-12	-531.721E-3	28.2966E-3
503.937E-3	61.3530E-12	503.575E-3	503.937E-3	-71.7419E-3	40.0746E-12	-558.878E-3	23.7885E-3
492.126E-3	60.7189E-12	491.747E-3	492.126E-3	-237.350E-3	40.0634E-12	-651.048E-3	24.0824E-3
480.315E-3	58.7254E-12	479.938E-3	480.315E-3	249.169E-3	39.9286E-12	-502.381E-3	22.7278E-3
468.504E-3	58.4856E-12	468.142E-3	468.504E-3	-123.096E-3	40.0527E-12	-605.772E-3	23.5144E-3
456.693E-3	57.4035E-12	456.331E-3	456.693E-3	109.353E-3	40.0609E-12	-545.989E-3	22.5472E-3
444.882E-3	57.0606E-12	444.564E-3	444.882E-3	42.9791E-3	40.0896E-12	-565.751E-3	22.3280E-3
433.071E-3	55.7393E-12	432.730E-3	433.071E-3	-90.2985E-3	39.9741E-12	-600.868E-3	23.1869E-3
421.260E-3	55.1484E-12	420.923E-3	421.260E-3	-17.1553E-3	40.0443E-12	-576.750E-3	19.9673E-3
409.449E-3	53.6808E-12	409.146E-3	409.449E-3	-33.2568E-3	39.9596E-12	-586.649E-3	25.3861E-3
397.638E-3	52.3015E-12	397.290E-3	397.638E-3	179.623E-3	39.9688E-12	-533.308E-3	25.9501E-3
385.827E-3	51.3975E-12	385.542E-3	385.827E-3	-64.6454E-3	39.9890E-12	-601.266E-3	23.3214E-3
374.016E-3	50.1368E-12	373.702E-3	374.016E-3	-5.98395E-3	40.0228E-12	-623.490E-3	23.4668E-3
362.205E-3	49.0110E-12	361.905E-3	362.205E-3	138.454E-3	40.0862E-12	-569.615E-3	22.3385E-3
350.394E-3	47.2766E-12	350.156E-3	350.394E-3	-115.210E-3	39.9719E-12	-628.003E-3	23.9895E-3
338.583E-3	46.0767E-12	338.300E-3	338.583E-3	69.9943E-3	39.9890E-12	-586.599E-3	24.7104E-3
326.772E-3	45.1577E-12	326.505E-3	326.772E-3	-226.612E-3	40.0348E-12	-697.053E-3	26.2992E-3
314.961E-3	43.6453E-12	314.678E-3	314.961E-3	12.6496E-3	40.1209E-12	-630.648E-3	21.8326E-3
303.150E-3	42.0352E-12	302.856E-3	303.150E-3	-103.837E-3	39.8863E-12	-692.514E-3	27.7513E-3
291.339E-3	40.7258E-12	291.106E-3	291.339E-3	228.808E-3	39.9154E-12	-594.721E-3	27.2466E-3
279.528E-3	39.4222E-12	279.278E-3	279.528E-3	-77.8886E-3	40.0901E-12	-683.631E-3	25.2376E-3
267.717E-3	37.7900E-12	267.470E-3	267.717E-3	24.1866E-3	40.0167E-12	-641.416E-3	26.0876E-3
255.906E-3	36.8556E-12	255.642E-3	255.906E-3	129.097E-3	40.0171E-12	-593.045E-3	27.0059E-3
244.094E-3	34.9715E-12	243.865E-3	244.094E-3	-13.0482E-3	40.0316E-12	-638.720E-3	24.9245E-3
232.283E-3	33.6706E-12	232.014E-3	232.283E-3	-14.9174E-3	40.0122E-12	-658.894E-3	23.8526E-3
220.472E-3	31.9732E-12	220.179E-3	220.472E-3	-37.9945E-3	39.9891E-12	-665.514E-3	26.5066E-3
208.661E-3	30.2396E-12	208.395E-3	208.661E-3	-35.8955E-3	39.9847E-12	-683.271E-3	25.2725E-3
196.850E-3	28.4831E-12	196.565E-3	196.850E-3	48.4897E-3	39.9502E-12	-663.875E-3	26.9481E-3
185.039E-3	27.0012E-12	184.798E-3	185.039E-3	-226.620E-3	40.0560E-12	-768.012E-3	23.7613E-3
173.228E-3	25.3752E-12	172.991E-3	173.228E-3	140.164E-3	39.8838E-12	-689.517E-3	26.4105E-3
161.417E-3	23.6699E-12	161.151E-3	161.417E-3	-66.4142E-3	40.0971E-12	-745.318E-3	22.6135E-3
149.606E-3	21.7422E-12	149.323E-3	149.606E-3	77.0708E-3	39.9629E-12	-707.302E-3	26.1617E-3
137.795E-3	19.8336E-12	137.532E-3	137.795E-3	50.1301E-3	39.9267E-12	-727.191E-3	26.7171E-3
125.984E-3	18.1850E-12	125.777E-3	125.984E-3	-15.3176E-3	40.0492E-12	-765.939E-3	25.7935E-3
114.173E-3	16.4065E-12	113.939E-3	114.173E-3	98.7126E-3	40.0091E-12	-727.716E-3	25.9295E-3
102.362E-3	14.7808E-12	102.141E-3	102.362E-3	75.5755E-3	39.9787E-12	-753.492E-3	28.7964E-3
90.5512E-3	13.0100E-12	90.3381E-3	90.5512E-3	-102.258E-3	39.9597E-12	-789.496E-3	28.2843E-3
78.7402E-3	11.2269E-12	78.4989E-3	78.7402E-3	-17.0372E-3	39.9884E-12	-774.701E-3	27.4806E-3
66.9291E-3	9.45536E-12	66.6291E-3	66.9291E-3	-88.0329E-3	40.0115E-12	-825.050E-3	25.8890E-3
55.1181E-3	7.79112E-12	54.8482E-3	55.1181E-3	116.980E-3	39.9993E-12	-740.299E-3	26.2593E-3
43.3071E-3	6.09410E-12	43.0277E-3	43.3071E-3	-251.365E-3	39.9234E-12	-870.187E-3	27.8759E-3
31.4961E-3	4.45615E-12	31.2105E-3	31.4961E-3	67.1166E-3	39.9545E-12	-786.838E-3	27.9658E-3
19.6850E-3	2.82065E-12	19.4182E-3	19.6850E-3	47.3263E-3	40.0179E-12	-785.199E-3	27.7194E-3
7.87402E-3	1.12020E-12	7.55587E-3	7.87402E-3	-125.398E-3	40.1270E-12	-858.347E-3	24.9096E-3
-3.93701E-3	-544.751E-15	-4.33635E-3	-3.93701E-3	-23.5794E-3	39.9851E-12	-840.344E-3	28.4660E-3
-15.7480E-3	-2.22060E-12	-16.1162E-3	-15.7480E-3	-104.218E-3	39.9799E-12	-881.490E-3	26.1237E-3
-27.5591E-3	-3.80010E-12	-27.9204E-3	-27.5591E-3	52.0976E-3	39.9189E-12	-853.968E-3	27.5186E-3
-39.3701E-3	-5.50846E-12	-39.6925E-3	-39.3701E-3	179.830E-3	40.0733E-12	-821.665E-3	27.7509E-3
-51.1811E-3	-6.87649E-12	-51.5513E-3	-51.1811E-3	-4.58765E-3	40.0284E-12	-885.803E-3	26.2411E-3
-62.9921E-3	-8.18309E-12	-63.3334E-3	-62.9921E-3	-142.097E-3	39.9617E-12	-930.376E-3	28.4384E-3
-74.8032E-3	-9.27207E-12	-75.1594E-3	-74.8032E-3	118.990E-3	40.0603E-12	-857.552E-3	25.3764E-3
-86.6142E-3	-9.87405E-12	-87.0210E-3	-86.6142E-3	-3.30241E-3	39.9615E-12	-883.058E-3	28.1271E-3
-98.4252E-3	-10.5336E-12	-98.7929E-3	-98.4252E-3	-152.432E-3	40.0446E-12	-951.210E-3	23.3808E-3
-110.236E-3	-11.2279E-12	-110.650E-3	-110.236E-3	-50.7356E-3	39.9617E-12	-930.471E-3	27.0236E-3
-122.047E-3	-11.7085E-12	-122.393E-3	-122.047E-3	128.765E-3	40.0226E-12	-869.397E-3	28.0331E-3
-133.858E-3	-12.5609E-12	-134.246E-3	-133.858E-3	-130.840E-3	39.9812E-12	-955.100E-3	27.1711E-3
-145.669E-3	-13.3814E-12	-146.050E-3	-145.669E-3	177.091E-3	39.9910E-12	-863.611E-3	28.1737E-3
-157.480E-3	-13.9350E-12	-157.819E-3	-157.480E-3	-133.402E-3	40.0012E-12	-962.655E-3	29.7093E-3
-169.291E-3	-14.8306E-12	-169.683E-3	-169.291E-3	-106.744E-3	40.0357E-12	-959.473E-3	27.2371E-3
-181.102E-3	-15.4367E-12	-181.432E-3	-181.102E-3	-113.784E-3	39.9514E-12	-1.00552E+0	25.8302E-3
-192.913E-3	-16.2475E-12	-193.240E-3	-192.913E-3	-13.4159E-3	40.0461E-12	-999.835E-3	28.6017E-3
-204.724E-3	-16.5864E-12	-205.078E-3	-204.724E-3	63.0837E-3	39.9454E-12	-975.786E-3	28.0807E-3
-216.535E-3	-18.0143E-12	-216.880E-3	-216.535E-3	10.8482E-3	40.0262E-12	-985.533E-3	28.7364E-3
-228.346E-3	-18.5297E-12	-228.711E-3	-228.346E-3	-66.3509E-3	39.9876E-12	-1.03788E+0	27.7999E-3
-240.157E-3	-19.2841E-12	-240.497E-3	-240.157E-3	62.5945E-3	40.0283E-12	-1.00269E+0	27.5008E-3
-251.969E-3	-19.8836E-12	-252.317E-3	-251.969E-3	-585.169E-6	40.0100E-12	-1.01387E+0	27.8650E-3
-263.780E-3	-20.4925E-12	-264.078E-3	-263.780E-3	-23.4114E-3	40.0227E-12	-1.02144E+0	25.2185E-3
-275.591E-3	-21.4175E-12	-275.892E-3	-275.591E-3	44.1967E-3	40.0693E-12	-1.03494E+0	25.8609E-3
-287.402E-3	-21.6125E-12	-287.730E-3	-287.402E-3	-158.246E-3	39.9776E-12	-1.11336E+0	25.6691E-3
-299.213E-3	-22.6591E-12	-299.523E-3	-299.213E-3	273.836E-6	39.9923E-12	-1.06559E+0	26.4347E-3
-311.024E-3	-23.5812E-12	-311.346E-3	-311.024E-3	-24.2870E-3	39.9811E-12	-1.09392E+0	28.1904E-3
-322.835E-3	-24.1721E-12	-323.136E-3	-322.835E-3	-217.761E-3	39.8520E-12	-1.17075E+0	31.7757E-3
-334.646E-3	-25.2017E-12	-334.914E-3	-334.646E-3	-72.9902E-3	39.9656E-12	-1.14236E+0	28.5218E-3
-346.457E-3	-26.4664E-12	-346.727E-3	-346.457E-3	41.5596E-3	40.0656E-12	-1.14476E+0	25.6972E-3
-358.268E-3	-26.9469E-12	-358.566E-3	-358.268E-3	248.088E-3	40.0198E-12	-1.04159E+0	26.8922E-3
-370.079E-3	-27.9113E-12	-370.366E-3	-370.079E-3	-98.3047E-3	40.0265E-12	-1.12449E+0	24.5883E-3
-381.890E-3	-29.2386E-12	-382.131E-3	-381.890E-3	-12.8303E-3	39.9240E-12	-1.13461E+0	28.9738E-3
-393.701E-3	-30.5460E-12	-394.003E-3	-393.701E-3	47.5677E-3	40.0094E-12	-1.13488E+0	28.8918E-3
-405.512E-3	-31.3586E-12	-405.829E-3	-405.512E-3	-150.495E-3	39.9679E-12	-1.21803E+0	27.1636E-3
-417.323E-3	-32.1935E-12	-417.621E-3	-417.323E-3	-134.091E-3	40.0156E-12	-1.25099E+0	30.0784E-3
-429.134E-3	-33.1526E-12	-429.426E-3	-429.134E-3	160.557E-3	40.0498E-12	-1.19864E+0	25.6757E-3
-440.945E-3	-33.7582E-12	-441.234E-3	-440.945E-3	-31.7129E-3	39.9191E-12	-1.25514E+0	29.6423E-3
-452.756E-3	-34.0683E-12	-453.045E-3	-452.756E-3	98.8409E-3	40.0074E-12	-1.21572E+0	28.9113E-3
-464.567E-3	-34.6896E-12	-464.863E-3	-464.567E-3	-73.0605E-3	39.9577E-12	-1.26201E+0	28.6343E-3
-476.378E-3	-34.9502E-12	-476.695E-3	-476.378E-3	92.1301E-3	39.9713E-12	-1.21018E+0	26.4514E-3
-488.189E-3	-35.8642E-12	-488.425E-3	-488.189E-3	-41.2327E-3	39.9642E-12	-1.24438E+0	27.3383E-3
-500.000E-3	-36.6871E-12	-500.267E-3	-500.000E-3	-148.442E-3	40.0630E-12	-1.29993E+0	26.7277E-3
