Experiment	bias spectroscopy	
Date	01.12.2015 05:58:24	
User		
X (m)	280.954E-9	
Y (m)	-137.885E-9	
Z (m)	-4.07703E-9	
Z offset (m)	0E+0	
Settling time (s)	30E-3	
Integration time (s)	200E-3	
Z-Ctrl hold	TRUE	
Final Z (m)	-4.07703E-9	
Filter type	None	
Order		
Cutoff frq		
Current (A)	17.4307E-12	
Z (m)	-4.07703E-9	
Phase (deg)	-571.921E-3	
Amplitude (m)	39.9396E-12	
Frequency Shift (Hz)	-1.29884E+0	
Excitation (V)	16.8643E-3	

[DATA]
Bias calc (V)	Current (A)	Applied Voltage measured (V)	Bias (V)	Phase (deg)	Amplitude (m)	Frequency Shift (Hz)	Excitation (V)
1.00000E+0	17.1777E-12	999.364E-3	1.00000E+0	71.7763E-3	39.9287E-12	-1.08801E+0	28.7082E-3
988.189E-3	16.9627E-12	987.568E-3	988.189E-3	-132.131E-3	40.0285E-12	-1.15280E+0	23.7162E-3
976.378E-3	16.8660E-12	975.797E-3	976.378E-3	-80.1427E-3	39.9635E-12	-1.12359E+0	26.1281E-3
964.567E-3	16.7622E-12	963.934E-3	964.567E-3	94.3264E-3	40.0273E-12	-1.06285E+0	24.2041E-3
952.756E-3	16.6152E-12	952.177E-3	952.756E-3	-5.80837E-3	40.0021E-12	-1.09471E+0	25.1480E-3
940.945E-3	16.4647E-12	940.332E-3	940.945E-3	195.818E-3	40.0340E-12	-1.02113E+0	25.3294E-3
929.134E-3	16.3798E-12	928.517E-3	929.134E-3	-135.552E-3	39.9933E-12	-1.10049E+0	27.1817E-3
917.323E-3	16.3365E-12	916.758E-3	917.323E-3	-11.0286E-3	39.9813E-12	-1.09565E+0	26.7458E-3
905.512E-3	16.1367E-12	904.896E-3	905.512E-3	19.6084E-3	39.9920E-12	-1.05815E+0	24.6924E-3
893.701E-3	15.8793E-12	893.150E-3	893.701E-3	-25.1269E-3	40.0286E-12	-1.07162E+0	26.1574E-3
881.890E-3	15.7368E-12	881.307E-3	881.890E-3	85.5379E-3	39.9792E-12	-1.03218E+0	26.8784E-3
870.079E-3	15.4878E-12	869.494E-3	870.079E-3	-98.1043E-3	39.9714E-12	-1.10822E+0	25.4359E-3
858.268E-3	15.4158E-12	857.674E-3	858.268E-3	298.782E-3	39.9694E-12	-973.256E-3	28.4673E-3
846.457E-3	15.3863E-12	845.846E-3	846.457E-3	-40.7644E-3	40.0285E-12	-1.05811E+0	25.1016E-3
834.646E-3	15.2102E-12	834.071E-3	834.646E-3	82.2473E-3	39.9995E-12	-1.02605E+0	25.7750E-3
822.835E-3	15.1961E-12	822.264E-3	822.835E-3	70.7648E-3	39.9978E-12	-1.00771E+0	24.4945E-3
811.024E-3	15.0224E-12	810.436E-3	811.024E-3	-182.564E-3	39.9928E-12	-1.10149E+0	24.1026E-3
799.213E-3	14.8272E-12	798.666E-3	799.213E-3	57.7633E-3	40.0097E-12	-1.02270E+0	23.4614E-3
787.402E-3	14.6896E-12	786.841E-3	787.402E-3	102.033E-3	39.9827E-12	-988.171E-3	28.8110E-3
775.591E-3	14.7167E-12	775.051E-3	775.591E-3	-55.0057E-3	40.0198E-12	-1.02252E+0	23.8862E-3
763.780E-3	14.5092E-12	763.215E-3	763.780E-3	107.245E-3	40.0188E-12	-971.756E-3	25.4259E-3
751.969E-3	14.3451E-12	751.450E-3	751.969E-3	-108.802E-3	39.9792E-12	-1.03346E+0	25.6676E-3
740.157E-3	14.0843E-12	739.644E-3	740.157E-3	67.6359E-3	40.0224E-12	-994.069E-3	24.3849E-3
728.346E-3	13.8833E-12	727.799E-3	728.346E-3	-19.8432E-3	40.0555E-12	-999.144E-3	23.9823E-3
716.535E-3	13.7585E-12	716.004E-3	716.535E-3	83.0081E-3	39.9560E-12	-961.764E-3	25.4031E-3
704.724E-3	13.5814E-12	704.324E-3	704.724E-3	39.5003E-3	39.9350E-12	-962.704E-3	27.5468E-3
692.913E-3	13.6133E-12	692.524E-3	692.913E-3	-24.8741E-3	40.0077E-12	-980.798E-3	26.0394E-3
681.102E-3	13.3217E-12	680.758E-3	681.102E-3	-39.7477E-3	39.9213E-12	-997.457E-3	27.8875E-3
669.291E-3	13.1866E-12	668.927E-3	669.291E-3	112.548E-3	40.0297E-12	-956.097E-3	26.6840E-3
657.480E-3	12.9872E-12	657.093E-3	657.480E-3	-11.7731E-3	40.0226E-12	-991.422E-3	24.5105E-3
645.669E-3	12.6615E-12	645.284E-3	645.669E-3	107.177E-3	39.9125E-12	-937.442E-3	26.9672E-3
633.858E-3	12.7907E-12	633.475E-3	633.858E-3	77.4513E-3	40.0636E-12	-910.952E-3	23.3455E-3
622.047E-3	12.3927E-12	621.675E-3	622.047E-3	47.5228E-3	39.9456E-12	-920.517E-3	27.7543E-3
610.236E-3	12.2921E-12	609.902E-3	610.236E-3	-53.5578E-3	39.9991E-12	-963.361E-3	28.1188E-3
598.425E-3	12.1702E-12	598.092E-3	598.425E-3	56.9875E-3	40.0492E-12	-966.799E-3	25.3269E-3
586.614E-3	11.9326E-12	586.285E-3	586.614E-3	77.4072E-3	39.9178E-12	-938.556E-3	29.1736E-3
574.803E-3	11.9299E-12	574.469E-3	574.803E-3	99.4717E-3	39.9998E-12	-917.128E-3	24.5548E-3
562.992E-3	11.8314E-12	562.693E-3	562.992E-3	51.4691E-3	40.0263E-12	-913.547E-3	23.4824E-3
551.181E-3	11.5670E-12	550.879E-3	551.181E-3	-90.5377E-3	39.9642E-12	-958.767E-3	25.9967E-3
539.370E-3	11.3395E-12	539.013E-3	539.370E-3	8.59316E-3	39.9693E-12	-933.687E-3	28.2537E-3
527.559E-3	11.2274E-12	527.233E-3	527.559E-3	-125.099E-3	40.0402E-12	-986.603E-3	25.1084E-3
515.748E-3	11.0306E-12	515.391E-3	515.748E-3	-20.3772E-3	40.0360E-12	-984.680E-3	23.8442E-3
503.937E-3	10.7781E-12	503.609E-3	503.937E-3	95.8083E-3	39.9413E-12	-934.586E-3	27.7315E-3
492.126E-3	10.5850E-12	491.783E-3	492.126E-3	-6.73470E-3	40.0271E-12	-930.201E-3	24.4813E-3
480.315E-3	10.3256E-12	479.975E-3	480.315E-3	-24.2070E-3	39.9088E-12	-938.917E-3	27.8030E-3
468.504E-3	10.1930E-12	468.189E-3	468.504E-3	83.2692E-3	40.0257E-12	-889.913E-3	26.3420E-3
456.693E-3	10.0023E-12	456.374E-3	456.693E-3	-72.2804E-3	40.0328E-12	-937.446E-3	26.6218E-3
444.882E-3	9.78188E-12	444.611E-3	444.882E-3	-120.083E-3	40.0532E-12	-976.677E-3	21.3481E-3
433.071E-3	9.50264E-12	432.775E-3	433.071E-3	55.9121E-3	39.9246E-12	-936.333E-3	26.6826E-3
421.260E-3	9.35868E-12	420.964E-3	421.260E-3	-63.7730E-3	40.0572E-12	-947.168E-3	23.2905E-3
409.449E-3	9.12962E-12	409.184E-3	409.449E-3	-1.07903E-3	39.9746E-12	-931.710E-3	27.0947E-3
397.638E-3	8.81778E-12	397.340E-3	397.638E-3	-11.7314E-3	39.9946E-12	-949.700E-3	26.6893E-3
385.827E-3	8.75528E-12	385.581E-3	385.827E-3	-42.0182E-3	40.0724E-12	-964.201E-3	24.4467E-3
374.016E-3	8.33843E-12	373.737E-3	374.016E-3	-93.1932E-3	39.9806E-12	-1.00282E+0	25.7983E-3
362.205E-3	8.15860E-12	361.933E-3	362.205E-3	75.4145E-3	39.9578E-12	-957.303E-3	29.6240E-3
350.394E-3	8.01962E-12	350.189E-3	350.394E-3	-77.1753E-3	39.9956E-12	-988.396E-3	25.9177E-3
338.583E-3	7.76342E-12	338.339E-3	338.583E-3	121.143E-3	39.9645E-12	-923.422E-3	26.5918E-3
326.772E-3	7.50026E-12	326.538E-3	326.772E-3	22.7034E-3	40.0630E-12	-936.475E-3	23.2235E-3
314.961E-3	7.34622E-12	314.700E-3	314.961E-3	-28.6632E-3	40.0282E-12	-952.712E-3	25.7823E-3
303.150E-3	7.12969E-12	302.876E-3	303.150E-3	-92.7295E-3	40.0444E-12	-990.451E-3	24.5389E-3
291.339E-3	6.87182E-12	291.122E-3	291.339E-3	7.52147E-3	39.9492E-12	-973.505E-3	28.2561E-3
279.528E-3	6.63990E-12	279.299E-3	279.528E-3	60.0362E-3	39.9942E-12	-943.122E-3	25.7404E-3
267.717E-3	6.30465E-12	267.485E-3	267.717E-3	-116.330E-3	39.9517E-12	-1.02494E+0	28.0997E-3
255.906E-3	6.15779E-12	255.667E-3	255.906E-3	-36.1030E-3	40.0267E-12	-1.01752E+0	24.6286E-3
244.094E-3	5.92136E-12	243.894E-3	244.094E-3	142.255E-3	39.9820E-12	-961.112E-3	27.2803E-3
232.283E-3	5.60453E-12	232.039E-3	232.283E-3	-22.2856E-3	40.0114E-12	-997.327E-3	26.9921E-3
220.472E-3	5.40603E-12	220.205E-3	220.472E-3	89.1877E-3	39.9869E-12	-952.405E-3	28.0339E-3
208.661E-3	5.21613E-12	208.427E-3	208.661E-3	-110.881E-3	40.0044E-12	-1.02864E+0	24.5993E-3
196.850E-3	4.88877E-12	196.599E-3	196.850E-3	52.0890E-3	40.0761E-12	-973.761E-3	23.9548E-3
185.039E-3	4.60449E-12	184.833E-3	185.039E-3	-175.332E-3	39.9672E-12	-1.05742E+0	27.3262E-3
173.228E-3	4.35443E-12	173.019E-3	173.228E-3	-4.52136E-3	39.9563E-12	-1.03406E+0	26.2632E-3
161.417E-3	4.08832E-12	161.186E-3	161.417E-3	167.473E-3	40.0203E-12	-978.785E-3	22.2467E-3
149.606E-3	3.87248E-12	149.356E-3	149.606E-3	-24.9303E-3	39.9891E-12	-1.02426E+0	27.3830E-3
137.795E-3	3.51693E-12	137.575E-3	137.795E-3	-160.069E-3	39.9891E-12	-1.06009E+0	27.2182E-3
125.984E-3	3.25495E-12	125.805E-3	125.984E-3	-57.3736E-3	40.0125E-12	-1.04386E+0	26.3329E-3
114.173E-3	2.97864E-12	113.972E-3	114.173E-3	-100.117E-3	39.9663E-12	-1.07038E+0	26.8938E-3
102.362E-3	2.65552E-12	102.168E-3	102.362E-3	61.7773E-3	39.9831E-12	-1.01431E+0	25.9964E-3
90.5512E-3	2.31568E-12	90.3602E-3	90.5512E-3	-32.2915E-3	39.9252E-12	-1.05802E+0	24.9518E-3
78.7402E-3	2.05048E-12	78.5342E-3	78.7402E-3	56.7665E-3	39.9571E-12	-1.04828E+0	29.3561E-3
66.9291E-3	1.71514E-12	66.6792E-3	66.9291E-3	115.494E-3	40.0091E-12	-1.00824E+0	26.0102E-3
55.1181E-3	1.41451E-12	54.8995E-3	55.1181E-3	35.4739E-3	40.0108E-12	-1.04510E+0	23.5241E-3
43.3071E-3	1.10032E-12	43.0745E-3	43.3071E-3	807.112E-6	40.0654E-12	-1.04574E+0	23.9451E-3
31.4961E-3	765.389E-15	31.2486E-3	31.4961E-3	-128.680E-3	40.0129E-12	-1.11786E+0	25.2646E-3
19.6850E-3	459.457E-15	19.4426E-3	19.6850E-3	-55.1841E-3	40.0035E-12	-1.09187E+0	27.8278E-3
7.87402E-3	111.226E-15	7.59404E-3	7.87402E-3	-1.74697E-3	39.9841E-12	-1.09998E+0	27.3329E-3
-3.93701E-3	-228.909E-15	-4.30097E-3	-3.93701E-3	30.5299E-3	39.9516E-12	-1.09319E+0	27.9769E-3
-15.7480E-3	-582.077E-15	-16.0813E-3	-15.7480E-3	80.6251E-3	39.9837E-12	-1.04774E+0	25.9382E-3
-27.5591E-3	-899.345E-15	-27.8952E-3	-27.5591E-3	-43.3438E-3	40.0622E-12	-1.08025E+0	24.2860E-3
-39.3701E-3	-1.19663E-12	-39.6636E-3	-39.3701E-3	-48.2038E-3	39.9216E-12	-1.11769E+0	30.1541E-3
-51.1811E-3	-1.50963E-12	-51.5252E-3	-51.1811E-3	133.241E-3	40.0928E-12	-1.07604E+0	25.4768E-3
-62.9921E-3	-1.78310E-12	-63.3002E-3	-62.9921E-3	-154.079E-3	39.9548E-12	-1.16101E+0	29.4585E-3
-74.8032E-3	-2.01238E-12	-75.1381E-3	-74.8032E-3	56.4805E-3	40.0338E-12	-1.13840E+0	24.9817E-3
-86.6142E-3	-2.14711E-12	-86.9966E-3	-86.6142E-3	-141.663E-3	40.0159E-12	-1.21520E+0	26.1691E-3
-98.4252E-3	-2.28008E-12	-98.7700E-3	-98.4252E-3	92.0047E-3	39.8943E-12	-1.14570E+0	27.3816E-3
-110.236E-3	-2.41625E-12	-110.628E-3	-110.236E-3	185.394E-3	40.0044E-12	-1.10333E+0	25.6828E-3
-122.047E-3	-2.53672E-12	-122.372E-3	-122.047E-3	-95.4392E-3	39.8965E-12	-1.17785E+0	28.2381E-3
-133.858E-3	-2.73624E-12	-134.227E-3	-133.858E-3	71.3632E-3	40.0337E-12	-1.13291E+0	26.8429E-3
-145.669E-3	-2.94688E-12	-146.027E-3	-145.669E-3	-134.923E-3	40.0896E-12	-1.22658E+0	21.9997E-3
-157.480E-3	-3.07796E-12	-157.798E-3	-157.480E-3	-45.8030E-3	39.9154E-12	-1.21662E+0	27.1085E-3
-169.291E-3	-3.23348E-12	-169.667E-3	-169.291E-3	-97.0025E-3	40.0644E-12	-1.22355E+0	24.5312E-3
-181.102E-3	-3.37211E-12	-181.410E-3	-181.102E-3	-7.77949E-3	40.0603E-12	-1.21441E+0	23.6438E-3
-192.913E-3	-3.46786E-12	-193.228E-3	-192.913E-3	-157.566E-3	39.9229E-12	-1.27134E+0	27.0351E-3
-204.724E-3	-3.61577E-12	-205.061E-3	-204.724E-3	-41.7881E-3	39.9521E-12	-1.25683E+0	26.2019E-3
-216.535E-3	-3.80034E-12	-216.863E-3	-216.535E-3	138.224E-3	40.0531E-12	-1.21539E+0	24.0430E-3
-228.346E-3	-3.92922E-12	-228.679E-3	-228.346E-3	6.60813E-3	39.9800E-12	-1.23550E+0	27.6447E-3
-240.157E-3	-4.11311E-12	-240.485E-3	-240.157E-3	-4.21525E-3	40.0541E-12	-1.24566E+0	22.8015E-3
-251.969E-3	-4.24496E-12	-252.310E-3	-251.969E-3	-104.383E-3	39.9538E-12	-1.31367E+0	26.9993E-3
-263.780E-3	-4.47330E-12	-264.072E-3	-263.780E-3	46.7063E-3	40.0742E-12	-1.27251E+0	26.2083E-3
-275.591E-3	-4.55182E-12	-275.876E-3	-275.591E-3	-79.9267E-3	39.9496E-12	-1.32377E+0	26.8404E-3
-287.402E-3	-4.76111E-12	-287.715E-3	-287.402E-3	-91.9279E-3	39.9754E-12	-1.33818E+0	28.4215E-3
-299.213E-3	-4.93817E-12	-299.509E-3	-299.213E-3	11.5599E-3	40.0686E-12	-1.33258E+0	22.3509E-3
-311.024E-3	-5.08546E-12	-311.343E-3	-311.024E-3	-80.9928E-3	39.9554E-12	-1.35812E+0	26.5020E-3
-322.835E-3	-5.15647E-12	-323.136E-3	-322.835E-3	7.01599E-3	39.9592E-12	-1.31645E+0	27.0786E-3
-334.646E-3	-5.29236E-12	-334.907E-3	-334.646E-3	-27.9444E-3	40.0579E-12	-1.33711E+0	25.7807E-3
-346.457E-3	-5.44968E-12	-346.728E-3	-346.457E-3	-130.953E-3	40.0456E-12	-1.39599E+0	27.1450E-3
-358.268E-3	-5.60874E-12	-358.559E-3	-358.268E-3	-93.2585E-3	39.9981E-12	-1.41313E+0	27.0197E-3
-370.079E-3	-5.63994E-12	-370.359E-3	-370.079E-3	108.650E-3	39.9887E-12	-1.36155E+0	27.2471E-3
-381.890E-3	-5.77495E-12	-382.126E-3	-381.890E-3	81.2727E-3	39.9877E-12	-1.34436E+0	31.1494E-3
-393.701E-3	-5.84455E-12	-393.999E-3	-393.701E-3	-116.987E-3	40.0181E-12	-1.42162E+0	28.1260E-3
-405.512E-3	-6.08181E-12	-405.805E-3	-405.512E-3	-86.1136E-3	39.9920E-12	-1.45194E+0	25.3799E-3
-417.323E-3	-6.25148E-12	-417.597E-3	-417.323E-3	86.0472E-3	40.1500E-12	-1.40150E+0	26.5105E-3
-429.134E-3	-6.45247E-12	-429.400E-3	-429.134E-3	48.8734E-3	39.9835E-12	-1.41043E+0	26.5868E-3
-440.945E-3	-6.58705E-12	-441.206E-3	-440.945E-3	-39.9194E-3	40.0515E-12	-1.44024E+0	26.5443E-3
-452.756E-3	-6.83284E-12	-453.012E-3	-452.756E-3	22.0132E-3	40.0050E-12	-1.42006E+0	28.1661E-3
-464.567E-3	-7.05441E-12	-464.835E-3	-464.567E-3	-108.180E-3	39.9138E-12	-1.47945E+0	28.0504E-3
-476.378E-3	-7.36302E-12	-476.664E-3	-476.378E-3	29.5392E-3	40.0765E-12	-1.45665E+0	23.3853E-3
-488.189E-3	-7.70213E-12	-488.399E-3	-488.189E-3	-68.6609E-3	39.9869E-12	-1.50787E+0	24.9563E-3
-500.000E-3	-8.03555E-12	-500.240E-3	-500.000E-3	-53.2430E-3	39.9977E-12	-1.52089E+0	24.5246E-3
