Experiment	bias spectroscopy	
Date	01.12.2015 08:37:10	
User		
X (m)	281.582E-9	
Y (m)	-137.693E-9	
Z (m)	-4.07703E-9	
Z offset (m)	0E+0	
Settling time (s)	30E-3	
Integration time (s)	200E-3	
Z-Ctrl hold	TRUE	
Final Z (m)	-4.07703E-9	
Filter type	None	
Order		
Cutoff frq		
Current (A)	15.5467E-12	
Z (m)	-4.07703E-9	
Phase (deg)	-380.862E-3	
Amplitude (m)	39.8898E-12	
Frequency Shift (Hz)	-1.19086E+0	
Excitation (V)	38.0105E-3	

[DATA]
Bias calc (V)	Current (A)	Applied Voltage measured (V)	Bias (V)	Phase (deg)	Amplitude (m)	Frequency Shift (Hz)	Excitation (V)
1.00000E+0	15.5427E-12	999.340E-3	1.00000E+0	-19.5244E-3	40.0218E-12	-1.07857E+0	25.0987E-3
988.189E-3	15.4236E-12	987.546E-3	988.189E-3	110.546E-3	40.0217E-12	-1.04448E+0	24.9754E-3
976.378E-3	15.1277E-12	975.779E-3	976.378E-3	-71.7637E-3	39.9448E-12	-1.11794E+0	26.3209E-3
964.567E-3	15.0914E-12	963.910E-3	964.567E-3	50.7241E-3	40.0638E-12	-1.06741E+0	23.8311E-3
952.756E-3	15.0251E-12	952.154E-3	952.756E-3	71.6356E-3	39.9681E-12	-1.06581E+0	28.2828E-3
940.945E-3	14.7646E-12	940.309E-3	940.945E-3	191.750E-3	40.0890E-12	-981.419E-3	25.7576E-3
929.134E-3	14.6066E-12	928.490E-3	929.134E-3	-51.0485E-3	39.9649E-12	-1.04649E+0	27.6783E-3
917.323E-3	14.4045E-12	916.740E-3	917.323E-3	-45.2876E-3	39.8816E-12	-1.05392E+0	29.1628E-3
905.512E-3	14.3008E-12	904.888E-3	905.512E-3	-27.6069E-3	39.9965E-12	-1.05593E+0	26.5826E-3
893.701E-3	14.3719E-12	893.135E-3	893.701E-3	108.733E-3	39.9815E-12	-996.875E-3	27.0612E-3
881.890E-3	14.3031E-12	881.291E-3	881.890E-3	-26.4200E-3	40.0727E-12	-1.01024E+0	25.0445E-3
870.079E-3	13.9712E-12	869.484E-3	870.079E-3	92.3596E-3	40.0239E-12	-994.816E-3	23.4442E-3
858.268E-3	13.7482E-12	857.668E-3	858.268E-3	90.2897E-3	39.9811E-12	-973.585E-3	24.5442E-3
846.457E-3	13.7684E-12	845.834E-3	846.457E-3	50.0037E-3	40.0305E-12	-968.288E-3	24.5112E-3
834.646E-3	13.6973E-12	834.054E-3	834.646E-3	7.99475E-3	40.0175E-12	-976.948E-3	26.4474E-3
822.835E-3	13.4564E-12	822.246E-3	822.835E-3	26.0565E-3	39.8918E-12	-989.720E-3	25.9071E-3
811.024E-3	13.4196E-12	810.414E-3	811.024E-3	-42.8343E-3	40.0829E-12	-992.282E-3	25.3298E-3
799.213E-3	13.2535E-12	798.641E-3	799.213E-3	88.9412E-3	39.9732E-12	-954.737E-3	26.8619E-3
787.402E-3	13.2293E-12	786.802E-3	787.402E-3	32.2159E-3	39.9221E-12	-986.222E-3	27.3347E-3
775.591E-3	13.0211E-12	775.012E-3	775.591E-3	-28.4674E-3	40.0636E-12	-975.579E-3	26.5154E-3
763.780E-3	12.6749E-12	763.187E-3	763.780E-3	49.1082E-3	40.0105E-12	-974.071E-3	21.7836E-3
751.969E-3	12.5412E-12	751.421E-3	751.969E-3	-28.7650E-3	39.9099E-12	-967.244E-3	28.9360E-3
740.157E-3	12.4496E-12	739.612E-3	740.157E-3	-30.6889E-3	40.0555E-12	-966.926E-3	24.4088E-3
728.346E-3	12.2907E-12	727.779E-3	728.346E-3	57.1628E-3	40.0089E-12	-933.233E-3	23.0411E-3
716.535E-3	12.2064E-12	715.994E-3	716.535E-3	-100.630E-3	40.0289E-12	-997.779E-3	25.8427E-3
704.724E-3	11.9093E-12	704.304E-3	704.724E-3	64.6029E-3	39.9487E-12	-945.934E-3	27.9025E-3
692.913E-3	11.8825E-12	692.498E-3	692.913E-3	3.65375E-3	39.9898E-12	-954.141E-3	26.8337E-3
681.102E-3	11.8479E-12	680.731E-3	681.102E-3	49.5607E-3	40.0760E-12	-947.011E-3	25.1386E-3
669.291E-3	11.7548E-12	668.913E-3	669.291E-3	-64.8631E-3	40.0223E-12	-987.328E-3	27.1575E-3
657.480E-3	11.3245E-12	657.072E-3	657.480E-3	127.174E-3	39.9860E-12	-899.687E-3	26.7338E-3
645.669E-3	11.3715E-12	645.273E-3	645.669E-3	-101.489E-3	40.0075E-12	-981.680E-3	27.4780E-3
633.858E-3	11.1575E-12	633.466E-3	633.858E-3	70.3821E-3	39.9744E-12	-945.210E-3	28.1371E-3
622.047E-3	11.1540E-12	621.655E-3	622.047E-3	-88.9798E-3	39.9293E-12	-985.544E-3	28.4528E-3
610.236E-3	10.8154E-12	609.891E-3	610.236E-3	21.5882E-3	40.0334E-12	-951.161E-3	25.8193E-3
598.425E-3	10.7660E-12	598.082E-3	598.425E-3	32.7814E-3	40.0645E-12	-928.695E-3	23.9848E-3
586.614E-3	10.5093E-12	586.272E-3	586.614E-3	-108.061E-3	39.9885E-12	-974.274E-3	23.9921E-3
574.803E-3	10.3952E-12	574.454E-3	574.803E-3	108.761E-3	40.0453E-12	-901.296E-3	22.7330E-3
562.992E-3	10.1955E-12	562.675E-3	562.992E-3	-117.581E-3	39.9524E-12	-953.792E-3	24.9830E-3
551.181E-3	10.0973E-12	550.855E-3	551.181E-3	14.9865E-3	40.0310E-12	-941.214E-3	26.3845E-3
539.370E-3	9.74514E-12	538.993E-3	539.370E-3	-99.1402E-3	39.9916E-12	-963.588E-3	26.4022E-3
527.559E-3	9.63975E-12	527.213E-3	527.559E-3	58.0629E-3	40.0981E-12	-915.992E-3	24.4456E-3
515.748E-3	9.60969E-12	515.385E-3	515.748E-3	-1.32617E-3	40.0468E-12	-932.725E-3	22.2733E-3
503.937E-3	9.25722E-12	503.596E-3	503.937E-3	17.8717E-3	39.9721E-12	-928.716E-3	26.5505E-3
492.126E-3	9.05566E-12	491.774E-3	492.126E-3	29.9131E-3	40.0284E-12	-927.197E-3	23.7072E-3
480.315E-3	8.80491E-12	479.952E-3	480.315E-3	-56.8698E-3	39.9045E-12	-959.400E-3	29.2411E-3
468.504E-3	8.82709E-12	468.164E-3	468.504E-3	77.8146E-3	40.0368E-12	-919.737E-3	26.9113E-3
456.693E-3	8.49028E-12	456.352E-3	456.693E-3	-49.9206E-3	40.0849E-12	-976.654E-3	22.7784E-3
444.882E-3	8.21951E-12	444.587E-3	444.882E-3	43.8332E-3	39.9512E-12	-922.579E-3	24.2573E-3
433.071E-3	8.04637E-12	432.745E-3	433.071E-3	-64.9381E-3	39.9474E-12	-965.152E-3	28.4731E-3
421.260E-3	7.85032E-12	420.939E-3	421.260E-3	219.651E-3	40.0585E-12	-866.188E-3	25.1868E-3
409.449E-3	7.76152E-12	409.157E-3	409.449E-3	-61.5020E-3	40.0342E-12	-942.718E-3	25.4860E-3
397.638E-3	7.47815E-12	397.309E-3	397.638E-3	5.08545E-3	39.9148E-12	-920.602E-3	26.4054E-3
385.827E-3	7.35781E-12	385.550E-3	385.827E-3	-167.278E-3	40.0749E-12	-1.00062E+0	24.9382E-3
374.016E-3	7.17476E-12	373.709E-3	374.016E-3	65.9903E-3	39.9835E-12	-957.386E-3	28.9202E-3
362.205E-3	6.85926E-12	361.912E-3	362.205E-3	16.6029E-3	39.9239E-12	-949.917E-3	27.4470E-3
350.394E-3	6.70702E-12	350.163E-3	350.394E-3	-141.721E-3	40.0244E-12	-1.02253E+0	26.6526E-3
338.583E-3	6.53035E-12	338.305E-3	338.583E-3	135.813E-3	40.0192E-12	-934.756E-3	23.5459E-3
326.772E-3	6.42961E-12	326.505E-3	326.772E-3	100.010E-3	39.9594E-12	-917.309E-3	23.1663E-3
314.961E-3	6.11491E-12	314.679E-3	314.961E-3	-13.0206E-3	39.9313E-12	-946.384E-3	28.1997E-3
303.150E-3	5.96497E-12	302.862E-3	303.150E-3	7.73618E-3	40.0119E-12	-943.696E-3	26.2961E-3
291.339E-3	5.69934E-12	291.116E-3	291.339E-3	-152.818E-3	39.9681E-12	-1.01056E+0	29.5005E-3
279.528E-3	5.57894E-12	279.287E-3	279.528E-3	-17.3158E-3	40.0294E-12	-975.609E-3	27.5027E-3
267.717E-3	5.41427E-12	267.471E-3	267.717E-3	-87.8598E-3	40.0106E-12	-998.317E-3	27.1175E-3
255.906E-3	5.12913E-12	255.652E-3	255.906E-3	2.46171E-3	39.9431E-12	-993.987E-3	26.8066E-3
244.094E-3	4.92465E-12	243.869E-3	244.094E-3	-93.3324E-3	40.0858E-12	-1.03148E+0	23.1958E-3
232.283E-3	4.81140E-12	232.014E-3	232.283E-3	54.4709E-3	39.9925E-12	-977.675E-3	25.0600E-3
220.472E-3	4.61634E-12	220.189E-3	220.472E-3	-31.2206E-3	40.0257E-12	-999.684E-3	26.9804E-3
208.661E-3	4.43664E-12	208.406E-3	208.661E-3	-17.0424E-3	40.0446E-12	-991.053E-3	24.7808E-3
196.850E-3	4.18046E-12	196.571E-3	196.850E-3	15.7424E-3	40.0282E-12	-983.626E-3	24.2880E-3
185.039E-3	3.97325E-12	184.805E-3	185.039E-3	-11.4617E-3	40.0152E-12	-980.699E-3	24.9406E-3
173.228E-3	3.76542E-12	172.996E-3	173.228E-3	-91.9980E-3	39.9600E-12	-1.01038E+0	25.0251E-3
161.417E-3	3.49378E-12	161.161E-3	161.417E-3	-12.3310E-3	39.8896E-12	-995.770E-3	26.0947E-3
149.606E-3	3.28934E-12	149.344E-3	149.606E-3	-212.442E-3	40.0169E-12	-1.09685E+0	24.9479E-3
137.795E-3	3.07875E-12	137.551E-3	137.795E-3	130.642E-3	39.9987E-12	-984.773E-3	28.9641E-3
125.984E-3	2.84255E-12	125.781E-3	125.984E-3	-47.8082E-3	40.0196E-12	-1.01440E+0	26.2307E-3
114.173E-3	2.57990E-12	113.945E-3	114.173E-3	115.309E-3	40.0393E-12	-970.922E-3	25.2080E-3
102.362E-3	2.31521E-12	102.144E-3	102.362E-3	-134.284E-3	40.0211E-12	-1.03390E+0	23.9731E-3
90.5512E-3	2.03879E-12	90.3300E-3	90.5512E-3	-148.389E-3	39.9541E-12	-1.07182E+0	28.2038E-3
78.7402E-3	1.78231E-12	78.5008E-3	78.7402E-3	44.6497E-3	39.9938E-12	-1.03841E+0	24.0585E-3
66.9291E-3	1.53121E-12	66.6289E-3	66.9291E-3	-100.589E-3	40.0040E-12	-1.10155E+0	27.5383E-3
55.1181E-3	1.25198E-12	54.8503E-3	55.1181E-3	13.9774E-3	39.9573E-12	-1.06806E+0	27.7136E-3
43.3071E-3	973.329E-15	43.0361E-3	43.3071E-3	39.6897E-3	40.0475E-12	-1.07179E+0	26.0129E-3
31.4961E-3	658.664E-15	31.2099E-3	31.4961E-3	48.7064E-3	39.9394E-12	-1.05586E+0	27.6495E-3
19.6850E-3	376.208E-15	19.4131E-3	19.6850E-3	-73.7093E-3	39.9186E-12	-1.09799E+0	27.4450E-3
7.87402E-3	108.855E-15	7.55341E-3	7.87402E-3	5.70124E-3	40.1053E-12	-1.08007E+0	22.7329E-3
-3.93701E-3	-207.114E-15	-4.33093E-3	-3.93701E-3	25.8878E-3	40.0243E-12	-1.06779E+0	24.1810E-3
-15.7480E-3	-545.753E-15	-16.1239E-3	-15.7480E-3	-52.3242E-3	40.0210E-12	-1.11115E+0	27.8234E-3
-27.5591E-3	-891.003E-15	-27.9365E-3	-27.5591E-3	-27.1098E-3	40.0246E-12	-1.10226E+0	24.6058E-3
-39.3701E-3	-1.19870E-12	-39.6984E-3	-39.3701E-3	66.3471E-3	39.9441E-12	-1.09723E+0	28.6284E-3
-51.1811E-3	-1.48760E-12	-51.5572E-3	-51.1811E-3	-66.2413E-3	39.9969E-12	-1.15164E+0	27.6723E-3
-62.9921E-3	-1.81080E-12	-63.3279E-3	-62.9921E-3	128.694E-3	39.9817E-12	-1.07250E+0	27.6312E-3
-74.8032E-3	-2.05568E-12	-75.1665E-3	-74.8032E-3	-17.8670E-3	40.0079E-12	-1.13650E+0	27.6088E-3
-86.6142E-3	-2.15092E-12	-87.0219E-3	-86.6142E-3	-81.7982E-3	39.9690E-12	-1.14499E+0	28.7611E-3
-98.4252E-3	-2.30782E-12	-98.7976E-3	-98.4252E-3	-66.3648E-3	40.0675E-12	-1.15599E+0	24.8135E-3
-110.236E-3	-2.40994E-12	-110.654E-3	-110.236E-3	54.5814E-3	40.0488E-12	-1.10119E+0	26.3207E-3
-122.047E-3	-2.53344E-12	-122.393E-3	-122.047E-3	-54.1405E-3	39.9364E-12	-1.17767E+0	29.0878E-3
-133.858E-3	-2.69561E-12	-134.241E-3	-133.858E-3	9.01748E-3	40.0230E-12	-1.16240E+0	25.5056E-3
-145.669E-3	-2.84841E-12	-146.044E-3	-145.669E-3	-153.129E-3	40.0605E-12	-1.23124E+0	24.6747E-3
-157.480E-3	-3.02071E-12	-157.828E-3	-157.480E-3	77.0437E-3	40.0398E-12	-1.17894E+0	23.6445E-3
-169.291E-3	-3.17614E-12	-169.693E-3	-169.291E-3	-115.247E-3	39.9854E-12	-1.24776E+0	23.5591E-3
-181.102E-3	-3.32422E-12	-181.435E-3	-181.102E-3	96.9229E-3	40.0415E-12	-1.17289E+0	25.2226E-3
-192.913E-3	-3.46637E-12	-193.240E-3	-192.913E-3	-104.784E-3	40.0318E-12	-1.22972E+0	24.7800E-3
-204.724E-3	-3.54555E-12	-205.070E-3	-204.724E-3	-44.5280E-3	39.9545E-12	-1.23314E+0	27.8743E-3
-216.535E-3	-3.67623E-12	-216.874E-3	-216.535E-3	-61.0057E-3	39.9826E-12	-1.25248E+0	26.1997E-3
-228.346E-3	-3.78287E-12	-228.701E-3	-228.346E-3	-90.6328E-3	39.9996E-12	-1.28449E+0	28.5578E-3
-240.157E-3	-3.93121E-12	-240.502E-3	-240.157E-3	-12.2668E-3	39.9836E-12	-1.28193E+0	26.1879E-3
-251.969E-3	-4.14198E-12	-252.323E-3	-251.969E-3	-90.1367E-3	40.0366E-12	-1.32237E+0	24.5355E-3
-263.780E-3	-4.30119E-12	-264.098E-3	-263.780E-3	-5.12859E-3	39.9428E-12	-1.27155E+0	28.6079E-3
-275.591E-3	-4.50176E-12	-275.906E-3	-275.591E-3	79.4586E-3	40.0413E-12	-1.26185E+0	24.4813E-3
-287.402E-3	-4.67567E-12	-287.733E-3	-287.402E-3	-83.6821E-3	39.9964E-12	-1.29415E+0	26.4646E-3
-299.213E-3	-4.75059E-12	-299.526E-3	-299.213E-3	-163.489E-3	39.9573E-12	-1.33614E+0	26.1972E-3
-311.024E-3	-4.93947E-12	-311.354E-3	-311.024E-3	-35.9996E-3	40.0052E-12	-1.32481E+0	24.6508E-3
-322.835E-3	-5.03100E-12	-323.137E-3	-322.835E-3	57.3129E-3	39.9240E-12	-1.30297E+0	25.2075E-3
-334.646E-3	-5.15867E-12	-334.913E-3	-334.646E-3	-103.390E-3	40.0618E-12	-1.35222E+0	23.4089E-3
-346.457E-3	-5.26000E-12	-346.736E-3	-346.457E-3	-14.1460E-3	40.0671E-12	-1.34794E+0	22.8773E-3
-358.268E-3	-5.41818E-12	-358.570E-3	-358.268E-3	18.3515E-3	40.0074E-12	-1.34979E+0	28.4366E-3
-370.079E-3	-5.54197E-12	-370.375E-3	-370.079E-3	-65.8520E-3	40.0292E-12	-1.38598E+0	23.5994E-3
-381.890E-3	-5.68951E-12	-382.145E-3	-381.890E-3	-86.4907E-3	39.9438E-12	-1.41510E+0	28.0887E-3
-393.701E-3	-5.85652E-12	-394.016E-3	-393.701E-3	-24.7182E-3	40.0323E-12	-1.42718E+0	25.8774E-3
-405.512E-3	-5.95433E-12	-405.825E-3	-405.512E-3	146.022E-3	40.0560E-12	-1.36478E+0	25.4250E-3
-417.323E-3	-6.05780E-12	-417.628E-3	-417.323E-3	-43.7922E-3	39.8057E-12	-1.41297E+0	29.8201E-3
-429.134E-3	-6.24772E-12	-429.437E-3	-429.134E-3	-142.568E-3	39.9613E-12	-1.44611E+0	28.2847E-3
-440.945E-3	-6.42939E-12	-441.237E-3	-440.945E-3	-62.5719E-3	40.0099E-12	-1.44204E+0	27.0302E-3
-452.756E-3	-6.59295E-12	-453.049E-3	-452.756E-3	-172.026E-3	40.0746E-12	-1.50623E+0	26.1861E-3
-464.567E-3	-6.89677E-12	-464.870E-3	-464.567E-3	8.43316E-3	40.0081E-12	-1.48179E+0	28.6321E-3
-476.378E-3	-7.14921E-12	-476.703E-3	-476.378E-3	-1.04445E-3	39.9890E-12	-1.50329E+0	28.0332E-3
-488.189E-3	-7.37026E-12	-488.431E-3	-488.189E-3	32.9852E-3	39.9730E-12	-1.49452E+0	29.0728E-3
-500.000E-3	-7.77908E-12	-500.271E-3	-500.000E-3	99.9277E-3	40.0382E-12	-1.46642E+0	26.3652E-3
