Experiment	bias spectroscopy	
Date	30.11.2015 17:23:38	
User		
X (m)	29.5503E-9	
Y (m)	-165.865E-9	
Z (m)	-3.80314E-9	
Z offset (m)	0E+0	
Settling time (s)	30E-3	
Integration time (s)	200E-3	
Z-Ctrl hold	TRUE	
Final Z (m)	-3.8021E-9	
Filter type	None	
Order		
Cutoff frq		
Current (A)	99.7215E-12	
Z (m)	-3.80322E-9	
Phase (deg)	-405.281E-3	
Amplitude (m)	40.1401E-12	
Frequency Shift (Hz)	-723.649E-3	
Excitation (V)	25.1373E-3	

[DATA]
Bias calc (V)	Current (A)	Applied Voltage measured (V)	Bias (V)	Phase (deg)	Amplitude (m)	Frequency Shift (Hz)	Excitation (V)
1.00000E+0	101.180E-12	999.334E-3	1.00000E+0	-27.1054E-3	40.0535E-12	-623.685E-3	22.1484E-3
988.189E-3	99.6249E-12	987.543E-3	988.189E-3	138.393E-3	39.9536E-12	-554.786E-3	24.7383E-3
976.378E-3	98.5877E-12	975.776E-3	976.378E-3	-163.836E-3	39.9966E-12	-632.943E-3	22.8386E-3
964.567E-3	97.5717E-12	963.909E-3	964.567E-3	60.9798E-3	39.9036E-12	-596.580E-3	22.4759E-3
952.756E-3	97.6450E-12	952.150E-3	952.756E-3	-70.2554E-3	40.1179E-12	-600.290E-3	18.9060E-3
940.945E-3	96.6676E-12	940.311E-3	940.945E-3	-229.563E-3	40.0338E-12	-659.257E-3	18.6735E-3
929.134E-3	95.2953E-12	928.496E-3	929.134E-3	59.6701E-3	39.9325E-12	-584.631E-3	23.2112E-3
917.323E-3	94.2813E-12	916.749E-3	917.323E-3	158.812E-3	40.0417E-12	-503.524E-3	21.4372E-3
905.512E-3	93.2363E-12	904.892E-3	905.512E-3	-18.1752E-3	40.0129E-12	-544.571E-3	23.7770E-3
893.701E-3	92.0293E-12	893.134E-3	893.701E-3	-160.941E-3	39.8969E-12	-603.930E-3	23.6612E-3
881.890E-3	91.7929E-12	881.279E-3	881.890E-3	159.148E-3	40.0216E-12	-486.011E-3	24.0281E-3
870.079E-3	91.1493E-12	869.472E-3	870.079E-3	-90.0709E-3	40.0799E-12	-539.523E-3	20.7730E-3
858.268E-3	89.9578E-12	857.643E-3	858.268E-3	-180.556E-3	40.0151E-12	-568.777E-3	23.9189E-3
846.457E-3	88.9998E-12	845.812E-3	846.457E-3	300.154E-3	40.0093E-12	-419.822E-3	27.6773E-3
834.646E-3	87.9848E-12	834.043E-3	834.646E-3	-128.011E-3	40.0809E-12	-531.822E-3	23.3317E-3
822.835E-3	86.3900E-12	822.234E-3	822.835E-3	10.4545E-3	39.9924E-12	-549.487E-3	23.6630E-3
811.024E-3	85.7209E-12	810.403E-3	811.024E-3	56.7666E-3	40.0061E-12	-506.667E-3	24.2104E-3
799.213E-3	84.7261E-12	798.635E-3	799.213E-3	113.298E-3	40.0447E-12	-452.749E-3	25.2309E-3
787.402E-3	83.9094E-12	786.803E-3	787.402E-3	-83.9629E-3	39.9919E-12	-547.257E-3	21.5782E-3
775.591E-3	82.8946E-12	775.024E-3	775.591E-3	-74.8861E-3	39.9972E-12	-559.928E-3	22.9461E-3
763.780E-3	81.5592E-12	763.197E-3	763.780E-3	78.3193E-3	39.9341E-12	-507.537E-3	26.4283E-3
751.969E-3	80.6674E-12	751.415E-3	751.969E-3	104.886E-3	40.0133E-12	-451.055E-3	25.1270E-3
740.157E-3	80.5230E-12	739.613E-3	740.157E-3	-252.456E-3	40.1067E-12	-580.083E-3	21.3234E-3
728.346E-3	79.7103E-12	727.774E-3	728.346E-3	-36.7318E-3	40.0046E-12	-511.949E-3	24.6692E-3
716.535E-3	78.0237E-12	715.990E-3	716.535E-3	-50.1193E-3	39.9404E-12	-523.708E-3	28.3778E-3
704.724E-3	77.6016E-12	704.298E-3	704.724E-3	203.608E-3	39.8978E-12	-445.606E-3	30.3425E-3
692.913E-3	76.9569E-12	692.497E-3	692.913E-3	5.15294E-3	40.0722E-12	-491.733E-3	23.2133E-3
681.102E-3	75.1100E-12	680.724E-3	681.102E-3	-24.1583E-3	40.0355E-12	-493.861E-3	24.9493E-3
669.291E-3	74.6540E-12	668.900E-3	669.291E-3	121.176E-3	40.0109E-12	-463.110E-3	25.7244E-3
657.480E-3	73.4814E-12	657.068E-3	657.480E-3	-157.440E-3	39.8660E-12	-543.364E-3	26.6474E-3
645.669E-3	72.4516E-12	645.262E-3	645.669E-3	-113.002E-3	40.0386E-12	-580.297E-3	23.5889E-3
633.858E-3	71.5899E-12	633.458E-3	633.858E-3	103.471E-3	40.0333E-12	-516.054E-3	22.9656E-3
622.047E-3	69.6983E-12	621.658E-3	622.047E-3	18.8762E-3	39.9376E-12	-530.027E-3	23.6712E-3
610.236E-3	68.5925E-12	609.889E-3	610.236E-3	128.166E-3	39.8382E-12	-505.910E-3	25.9610E-3
598.425E-3	67.6250E-12	598.079E-3	598.425E-3	32.0472E-3	39.9666E-12	-493.741E-3	26.4653E-3
586.614E-3	66.8165E-12	586.276E-3	586.614E-3	71.3293E-3	40.0481E-12	-485.660E-3	26.1574E-3
574.803E-3	65.7074E-12	574.451E-3	574.803E-3	-48.0470E-3	40.0130E-12	-521.908E-3	22.2586E-3
562.992E-3	65.0831E-12	562.684E-3	562.992E-3	-111.921E-3	40.1245E-12	-541.234E-3	24.3773E-3
551.181E-3	62.9066E-12	550.864E-3	551.181E-3	38.1027E-3	39.8498E-12	-526.534E-3	27.5530E-3
539.370E-3	62.2921E-12	538.999E-3	539.370E-3	86.8180E-3	39.9783E-12	-507.513E-3	23.8703E-3
527.559E-3	61.4038E-12	527.212E-3	527.559E-3	-123.710E-3	40.0116E-12	-565.177E-3	25.5247E-3
515.748E-3	60.1618E-12	515.375E-3	515.748E-3	36.0557E-3	40.0526E-12	-544.410E-3	24.5007E-3
503.937E-3	59.3760E-12	503.590E-3	503.937E-3	65.8094E-3	40.0298E-12	-524.928E-3	23.0523E-3
492.126E-3	58.0603E-12	491.764E-3	492.126E-3	-107.571E-3	40.0110E-12	-573.915E-3	24.7890E-3
480.315E-3	56.4336E-12	479.955E-3	480.315E-3	-49.2237E-3	40.0009E-12	-572.417E-3	24.1797E-3
468.504E-3	55.2092E-12	468.165E-3	468.504E-3	203.442E-3	39.9776E-12	-474.800E-3	25.7750E-3
456.693E-3	54.0765E-12	456.357E-3	456.693E-3	-47.1597E-3	39.9352E-12	-568.468E-3	25.5550E-3
444.882E-3	53.1787E-12	444.589E-3	444.882E-3	49.1975E-3	40.0095E-12	-525.665E-3	24.0375E-3
433.071E-3	52.1789E-12	432.750E-3	433.071E-3	-119.944E-3	39.9065E-12	-614.378E-3	26.9388E-3
421.260E-3	51.2157E-12	420.937E-3	421.260E-3	46.5164E-3	40.0367E-12	-575.218E-3	26.1902E-3
409.449E-3	49.5754E-12	409.149E-3	409.449E-3	20.5127E-3	40.0797E-12	-603.607E-3	26.3479E-3
397.638E-3	48.1555E-12	397.302E-3	397.638E-3	47.8960E-3	39.9699E-12	-600.156E-3	25.5974E-3
385.827E-3	47.3316E-12	385.541E-3	385.827E-3	107.939E-3	40.0106E-12	-581.902E-3	26.7272E-3
374.016E-3	45.6535E-12	373.706E-3	374.016E-3	-68.0881E-3	39.9793E-12	-621.565E-3	23.2532E-3
362.205E-3	44.8331E-12	361.908E-3	362.205E-3	111.020E-3	40.0015E-12	-546.040E-3	27.7768E-3
350.394E-3	43.8792E-12	350.154E-3	350.394E-3	-10.3170E-3	40.0697E-12	-560.576E-3	24.2285E-3
338.583E-3	41.9227E-12	338.301E-3	338.583E-3	-250.908E-3	39.9789E-12	-657.030E-3	24.1601E-3
326.772E-3	40.8728E-12	326.512E-3	326.772E-3	-78.3175E-3	39.9868E-12	-624.815E-3	24.6635E-3
314.961E-3	39.5230E-12	314.678E-3	314.961E-3	-24.9781E-3	40.0161E-12	-624.933E-3	24.0611E-3
303.150E-3	37.7663E-12	302.862E-3	303.150E-3	114.039E-3	39.9632E-12	-558.769E-3	26.1554E-3
291.339E-3	36.8524E-12	291.116E-3	291.339E-3	-62.1389E-3	39.9838E-12	-615.696E-3	25.5357E-3
279.528E-3	35.4495E-12	279.284E-3	279.528E-3	-53.9042E-3	39.9988E-12	-614.383E-3	28.4105E-3
267.717E-3	33.9154E-12	267.463E-3	267.717E-3	62.3311E-3	40.0458E-12	-586.911E-3	23.6874E-3
255.906E-3	32.6585E-12	255.647E-3	255.906E-3	-137.959E-3	40.0497E-12	-652.757E-3	23.5941E-3
244.094E-3	30.9697E-12	243.874E-3	244.094E-3	13.3594E-3	39.9456E-12	-626.383E-3	26.8893E-3
232.283E-3	29.5596E-12	232.028E-3	232.283E-3	93.7050E-3	39.9562E-12	-611.351E-3	28.1831E-3
220.472E-3	28.0076E-12	220.191E-3	220.472E-3	-72.1688E-3	40.0401E-12	-669.010E-3	23.5885E-3
208.661E-3	26.4875E-12	208.408E-3	208.661E-3	33.0036E-3	39.9913E-12	-660.304E-3	26.2288E-3
196.850E-3	24.7045E-12	196.583E-3	196.850E-3	-179.173E-3	39.9657E-12	-728.820E-3	25.4184E-3
185.039E-3	23.3467E-12	184.816E-3	185.039E-3	-46.9179E-3	39.9866E-12	-698.436E-3	23.5468E-3
173.228E-3	21.7358E-12	173.013E-3	173.228E-3	-135.325E-3	40.0172E-12	-732.891E-3	24.5900E-3
161.417E-3	19.9327E-12	161.182E-3	161.417E-3	-102.872E-3	39.9429E-12	-744.256E-3	26.8278E-3
149.606E-3	18.6738E-12	149.355E-3	149.606E-3	-20.9589E-3	40.0380E-12	-695.152E-3	25.1320E-3
137.795E-3	16.7833E-12	137.554E-3	137.795E-3	8.71979E-3	39.9723E-12	-704.383E-3	27.4894E-3
125.984E-3	15.2375E-12	125.782E-3	125.984E-3	-61.9530E-3	40.0133E-12	-707.993E-3	25.0844E-3
114.173E-3	13.8259E-12	113.947E-3	114.173E-3	-20.6073E-3	40.0426E-12	-731.371E-3	25.0521E-3
102.362E-3	12.2758E-12	102.143E-3	102.362E-3	35.9921E-3	40.0569E-12	-732.114E-3	24.0844E-3
90.5512E-3	10.7475E-12	90.3368E-3	90.5512E-3	-51.0949E-3	40.0581E-12	-755.088E-3	22.8983E-3
78.7402E-3	9.36198E-12	78.5092E-3	78.7402E-3	75.5396E-3	40.0178E-12	-722.992E-3	27.4540E-3
66.9291E-3	7.83215E-12	66.6334E-3	66.9291E-3	-120.484E-3	40.0170E-12	-778.475E-3	24.7035E-3
55.1181E-3	6.36127E-12	54.8634E-3	55.1181E-3	-45.2863E-3	39.9768E-12	-752.748E-3	28.2703E-3
43.3071E-3	4.93394E-12	43.0402E-3	43.3071E-3	86.5261E-3	39.9759E-12	-723.508E-3	27.3288E-3
31.4961E-3	3.53658E-12	31.2079E-3	31.4961E-3	-23.4949E-3	39.9850E-12	-772.551E-3	29.3077E-3
19.6850E-3	2.26419E-12	19.4038E-3	19.6850E-3	-10.0797E-3	40.0127E-12	-771.017E-3	27.3140E-3
7.87402E-3	873.458E-15	7.55433E-3	7.87402E-3	93.4675E-3	40.0364E-12	-756.299E-3	23.0290E-3
-3.93701E-3	-466.477E-15	-4.33005E-3	-3.93701E-3	-187.230E-3	39.9459E-12	-868.568E-3	28.3181E-3
-15.7480E-3	-1.78776E-12	-16.1203E-3	-15.7480E-3	134.331E-3	40.0376E-12	-799.968E-3	26.5543E-3
-27.5591E-3	-3.08083E-12	-27.9271E-3	-27.5591E-3	24.9371E-3	40.0445E-12	-820.830E-3	27.5044E-3
-39.3701E-3	-4.26929E-12	-39.6935E-3	-39.3701E-3	-80.2800E-3	40.0190E-12	-881.678E-3	28.0609E-3
-51.1811E-3	-5.56612E-12	-51.5496E-3	-51.1811E-3	-13.6677E-3	40.0574E-12	-878.460E-3	24.5514E-3
-62.9921E-3	-6.74011E-12	-63.3133E-3	-62.9921E-3	33.4093E-3	39.9924E-12	-871.434E-3	26.5411E-3
-74.8032E-3	-7.54016E-12	-75.1484E-3	-74.8032E-3	97.4585E-3	40.0311E-12	-828.589E-3	23.6002E-3
-86.6142E-3	-8.07514E-12	-87.0051E-3	-86.6142E-3	-71.5980E-3	39.9902E-12	-899.244E-3	28.1565E-3
-98.4252E-3	-8.58617E-12	-98.7879E-3	-98.4252E-3	146.601E-3	39.9916E-12	-828.815E-3	27.2906E-3
-110.236E-3	-8.96929E-12	-110.642E-3	-110.236E-3	-83.5574E-3	39.9616E-12	-891.992E-3	25.7512E-3
-122.047E-3	-9.44747E-12	-122.378E-3	-122.047E-3	138.717E-3	40.0228E-12	-843.334E-3	25.6996E-3
-133.858E-3	-9.78187E-12	-134.232E-3	-133.858E-3	-85.3914E-3	40.0589E-12	-910.358E-3	25.2885E-3
-145.669E-3	-10.1171E-12	-146.033E-3	-145.669E-3	-172.473E-3	39.9901E-12	-964.232E-3	24.1010E-3
-157.480E-3	-10.3435E-12	-157.810E-3	-157.480E-3	-124.224E-3	39.9285E-12	-993.569E-3	30.1837E-3
-169.291E-3	-10.8857E-12	-169.675E-3	-169.291E-3	250.593E-3	40.0352E-12	-853.225E-3	25.6099E-3
-181.102E-3	-11.2242E-12	-181.419E-3	-181.102E-3	-91.9234E-3	39.9523E-12	-970.108E-3	27.2589E-3
-192.913E-3	-11.5263E-12	-193.242E-3	-192.913E-3	-99.2195E-3	40.0561E-12	-985.531E-3	25.3914E-3
-204.724E-3	-12.0200E-12	-205.068E-3	-204.724E-3	50.7810E-3	40.0041E-12	-936.793E-3	23.7443E-3
-216.535E-3	-12.5890E-12	-216.876E-3	-216.535E-3	-66.3654E-3	40.0379E-12	-987.485E-3	23.0832E-3
-228.346E-3	-13.0743E-12	-228.700E-3	-228.346E-3	-102.930E-3	39.9961E-12	-1.00232E+0	28.3281E-3
-240.157E-3	-13.4326E-12	-240.495E-3	-240.157E-3	-208.192E-3	39.9365E-12	-1.07793E+0	30.0758E-3
-251.969E-3	-14.0752E-12	-252.316E-3	-251.969E-3	-26.3860E-3	39.9844E-12	-1.01860E+0	28.1524E-3
-263.780E-3	-14.6901E-12	-264.079E-3	-263.780E-3	22.7846E-3	40.0554E-12	-1.00288E+0	26.8802E-3
-275.591E-3	-14.9811E-12	-275.886E-3	-275.591E-3	100.904E-3	39.9271E-12	-974.236E-3	31.7934E-3
-287.402E-3	-15.5752E-12	-287.730E-3	-287.402E-3	-4.86394E-3	39.9794E-12	-1.00919E+0	25.0280E-3
-299.213E-3	-16.3072E-12	-299.518E-3	-299.213E-3	-98.4990E-3	40.0201E-12	-1.04822E+0	28.8573E-3
-311.024E-3	-16.7141E-12	-311.348E-3	-311.024E-3	-16.0404E-3	40.0124E-12	-1.05151E+0	28.7957E-3
-322.835E-3	-17.4880E-12	-323.137E-3	-322.835E-3	15.0210E-3	39.9511E-12	-1.04919E+0	30.7790E-3
-334.646E-3	-17.8762E-12	-334.916E-3	-334.646E-3	-86.1799E-3	39.9549E-12	-1.08118E+0	28.6457E-3
-346.457E-3	-18.3954E-12	-346.739E-3	-346.457E-3	-132.155E-3	40.0454E-12	-1.13115E+0	27.7121E-3
-358.268E-3	-19.0770E-12	-358.573E-3	-358.268E-3	-56.1475E-3	40.0648E-12	-1.13830E+0	26.1394E-3
-370.079E-3	-19.6980E-12	-370.371E-3	-370.079E-3	4.03400E-3	40.0368E-12	-1.12905E+0	27.6346E-3
-381.890E-3	-20.1104E-12	-382.144E-3	-381.890E-3	141.390E-3	39.9827E-12	-1.08818E+0	25.7125E-3
-393.701E-3	-20.6524E-12	-394.013E-3	-393.701E-3	-104.179E-3	39.9593E-12	-1.15385E+0	29.6534E-3
-405.512E-3	-21.1250E-12	-405.813E-3	-405.512E-3	-76.1766E-3	39.9701E-12	-1.15721E+0	27.9493E-3
-417.323E-3	-21.5505E-12	-417.619E-3	-417.323E-3	-142.797E-3	39.9907E-12	-1.19336E+0	29.8132E-3
-429.134E-3	-22.0697E-12	-429.421E-3	-429.134E-3	26.0470E-3	40.0658E-12	-1.16470E+0	28.3049E-3
-440.945E-3	-22.3636E-12	-441.229E-3	-440.945E-3	-153.872E-3	39.9736E-12	-1.22010E+0	27.9927E-3
-452.756E-3	-22.7478E-12	-453.032E-3	-452.756E-3	72.2186E-3	39.9937E-12	-1.17194E+0	28.8345E-3
-464.567E-3	-22.7898E-12	-464.862E-3	-464.567E-3	-36.4751E-3	40.0366E-12	-1.20251E+0	27.1729E-3
-476.378E-3	-23.0271E-12	-476.688E-3	-476.378E-3	120.216E-3	39.9622E-12	-1.15752E+0	26.5016E-3
-488.189E-3	-23.6919E-12	-488.419E-3	-488.189E-3	-97.6118E-3	40.0559E-12	-1.23236E+0	26.5378E-3
-500.000E-3	-23.9431E-12	-500.260E-3	-500.000E-3	-105.056E-3	39.9978E-12	-1.26943E+0	28.2081E-3
