Experiment	bias spectroscopy	
Date	01.12.2015 05:46:48	
User		
X (m)	281.341E-9	
Y (m)	-138.432E-9	
Z (m)	-4.07703E-9	
Z offset (m)	0E+0	
Settling time (s)	30E-3	
Integration time (s)	200E-3	
Z-Ctrl hold	TRUE	
Final Z (m)	-4.07703E-9	
Filter type	None	
Order		
Cutoff frq		
Current (A)	16.3423E-12	
Z (m)	-4.07703E-9	
Phase (deg)	822.634E-3	
Amplitude (m)	39.8151E-12	
Frequency Shift (Hz)	-853.901E-3	
Excitation (V)	32.8079E-3	

[DATA]
Bias calc (V)	Current (A)	Applied Voltage measured (V)	Bias (V)	Phase (deg)	Amplitude (m)	Frequency Shift (Hz)	Excitation (V)
1.00000E+0	16.2408E-12	999.308E-3	1.00000E+0	-45.6212E-3	40.0309E-12	-1.07509E+0	24.6274E-3
988.189E-3	15.8868E-12	987.514E-3	988.189E-3	-61.0735E-3	39.9395E-12	-1.09259E+0	26.4547E-3
976.378E-3	15.8110E-12	975.757E-3	976.378E-3	-46.3711E-3	40.0335E-12	-1.11401E+0	25.6248E-3
964.567E-3	15.5080E-12	963.883E-3	964.567E-3	151.730E-3	39.9182E-12	-1.04209E+0	29.4728E-3
952.756E-3	15.5843E-12	952.131E-3	952.756E-3	109.229E-3	40.0559E-12	-1.03511E+0	27.7012E-3
940.945E-3	15.4352E-12	940.285E-3	940.945E-3	64.9542E-3	40.0366E-12	-1.03820E+0	23.7668E-3
929.134E-3	15.1132E-12	928.469E-3	929.134E-3	-48.7235E-3	39.9056E-12	-1.06828E+0	26.2768E-3
917.323E-3	15.1240E-12	916.718E-3	917.323E-3	89.9465E-3	40.0370E-12	-1.01615E+0	24.6914E-3
905.512E-3	15.0058E-12	904.861E-3	905.512E-3	108.162E-3	39.9964E-12	-988.787E-3	27.0158E-3
893.701E-3	14.8567E-12	893.109E-3	893.701E-3	5.52136E-3	40.0362E-12	-1.01577E+0	23.7853E-3
881.890E-3	14.7822E-12	881.266E-3	881.890E-3	-43.0849E-3	39.9607E-12	-1.02822E+0	27.0978E-3
870.079E-3	14.5485E-12	869.460E-3	870.079E-3	38.4881E-3	39.9758E-12	-1.00669E+0	25.0797E-3
858.268E-3	14.5303E-12	857.645E-3	858.268E-3	102.288E-3	40.0628E-12	-973.860E-3	24.1360E-3
846.457E-3	14.2459E-12	845.804E-3	846.457E-3	-36.4960E-3	40.0380E-12	-1.01108E+0	23.5605E-3
834.646E-3	14.1284E-12	834.034E-3	834.646E-3	3.29402E-3	39.9773E-12	-997.207E-3	27.0705E-3
822.835E-3	14.1296E-12	822.224E-3	822.835E-3	-102.620E-3	40.0856E-12	-1.03357E+0	22.6229E-3
811.024E-3	13.6453E-12	810.401E-3	811.024E-3	182.957E-3	39.8974E-12	-957.041E-3	29.4745E-3
799.213E-3	13.7859E-12	798.636E-3	799.213E-3	52.8394E-3	39.9816E-12	-981.384E-3	26.0351E-3
787.402E-3	13.6105E-12	786.804E-3	787.402E-3	-21.1712E-3	40.0350E-12	-982.020E-3	24.3858E-3
775.591E-3	13.4604E-12	775.008E-3	775.591E-3	86.2053E-3	40.0169E-12	-962.361E-3	25.2243E-3
763.780E-3	13.4122E-12	763.183E-3	763.780E-3	-92.9763E-3	40.0039E-12	-1.01360E+0	24.0478E-3
751.969E-3	13.0099E-12	751.412E-3	751.969E-3	113.458E-3	40.0069E-12	-946.092E-3	26.3612E-3
740.157E-3	12.9690E-12	739.609E-3	740.157E-3	-152.093E-3	40.0091E-12	-1.02987E+0	23.9992E-3
728.346E-3	12.9139E-12	727.768E-3	728.346E-3	91.9187E-3	39.9789E-12	-948.329E-3	25.7992E-3
716.535E-3	12.6002E-12	715.984E-3	716.535E-3	119.721E-3	39.9513E-12	-901.968E-3	27.9512E-3
704.724E-3	12.5637E-12	704.289E-3	704.724E-3	-229.371E-3	39.9976E-12	-1.02133E+0	27.5568E-3
692.913E-3	12.4266E-12	692.490E-3	692.913E-3	1.02557E-3	40.0044E-12	-975.189E-3	25.6444E-3
681.102E-3	12.2005E-12	680.722E-3	681.102E-3	-5.22310E-3	39.8893E-12	-967.009E-3	29.9563E-3
669.291E-3	12.1636E-12	668.905E-3	669.291E-3	56.5285E-3	40.0999E-12	-933.197E-3	23.8293E-3
657.480E-3	12.1592E-12	657.057E-3	657.480E-3	-24.9764E-3	40.0065E-12	-950.711E-3	25.6249E-3
645.669E-3	11.8382E-12	645.249E-3	645.669E-3	-150.440E-3	40.0125E-12	-1.00506E+0	23.7675E-3
633.858E-3	11.7924E-12	633.444E-3	633.858E-3	51.3510E-3	40.0020E-12	-952.264E-3	24.7503E-3
622.047E-3	11.5289E-12	621.640E-3	622.047E-3	46.5090E-3	39.9943E-12	-948.204E-3	23.6051E-3
610.236E-3	11.4263E-12	609.884E-3	610.236E-3	138.793E-3	39.9868E-12	-906.180E-3	28.3516E-3
598.425E-3	11.2390E-12	598.074E-3	598.425E-3	56.1463E-3	40.0060E-12	-915.258E-3	25.2484E-3
586.614E-3	11.1839E-12	586.261E-3	586.614E-3	-28.8811E-3	39.9597E-12	-940.994E-3	27.8305E-3
574.803E-3	11.0817E-12	574.447E-3	574.803E-3	-122.610E-3	40.0078E-12	-988.541E-3	25.3707E-3
562.992E-3	10.8873E-12	562.659E-3	562.992E-3	88.5110E-3	40.0245E-12	-930.506E-3	21.3528E-3
551.181E-3	10.6195E-12	550.853E-3	551.181E-3	22.5395E-3	39.9349E-12	-936.613E-3	27.9489E-3
539.370E-3	10.6212E-12	538.989E-3	539.370E-3	-124.568E-3	40.0265E-12	-997.175E-3	27.3012E-3
527.559E-3	10.4384E-12	527.201E-3	527.559E-3	79.5633E-3	40.0570E-12	-937.059E-3	22.0429E-3
515.748E-3	10.1624E-12	515.370E-3	515.748E-3	-33.9511E-3	39.9775E-12	-957.117E-3	25.3421E-3
503.937E-3	9.93179E-12	503.573E-3	503.937E-3	152.211E-3	40.0012E-12	-891.774E-3	25.9459E-3
492.126E-3	9.86167E-12	491.755E-3	492.126E-3	35.4541E-3	40.0848E-12	-917.086E-3	22.1873E-3
480.315E-3	9.66132E-12	479.954E-3	480.315E-3	-144.818E-3	39.9705E-12	-976.827E-3	26.9444E-3
468.504E-3	9.47052E-12	468.157E-3	468.504E-3	98.5898E-3	39.9823E-12	-902.626E-3	26.0979E-3
456.693E-3	9.27444E-12	456.347E-3	456.693E-3	-64.3676E-3	40.0069E-12	-945.781E-3	25.9488E-3
444.882E-3	9.04917E-12	444.585E-3	444.882E-3	39.6166E-3	39.9600E-12	-918.036E-3	27.7095E-3
433.071E-3	8.92777E-12	432.747E-3	433.071E-3	-56.1330E-3	40.0214E-12	-959.845E-3	25.3369E-3
421.260E-3	8.68931E-12	420.938E-3	421.260E-3	-55.4613E-3	39.9306E-12	-963.357E-3	28.2708E-3
409.449E-3	8.42349E-12	409.165E-3	409.449E-3	37.8006E-3	40.0269E-12	-942.196E-3	26.5454E-3
397.638E-3	8.23669E-12	397.314E-3	397.638E-3	19.8611E-3	39.9799E-12	-972.370E-3	28.6307E-3
385.827E-3	8.02528E-12	385.557E-3	385.827E-3	134.889E-3	40.0236E-12	-905.785E-3	24.2608E-3
374.016E-3	7.87228E-12	373.710E-3	374.016E-3	46.5125E-3	39.9423E-12	-913.353E-3	30.1465E-3
362.205E-3	7.77250E-12	361.909E-3	362.205E-3	-17.7855E-3	40.0140E-12	-944.107E-3	25.7247E-3
350.394E-3	7.52242E-12	350.154E-3	350.394E-3	34.0003E-3	40.0432E-12	-939.867E-3	27.1674E-3
338.583E-3	7.31902E-12	338.303E-3	338.583E-3	-50.5873E-3	40.0473E-12	-962.279E-3	26.0723E-3
326.772E-3	7.13868E-12	326.513E-3	326.772E-3	-125.406E-3	39.9417E-12	-1.01668E+0	29.3502E-3
314.961E-3	6.96652E-12	314.679E-3	314.961E-3	34.4903E-3	40.0600E-12	-975.639E-3	24.0475E-3
303.150E-3	6.72695E-12	302.857E-3	303.150E-3	70.9262E-3	40.0278E-12	-957.373E-3	25.4662E-3
291.339E-3	6.49166E-12	291.115E-3	291.339E-3	-81.5870E-3	39.9905E-12	-1.00727E+0	25.0099E-3
279.528E-3	6.39122E-12	279.281E-3	279.528E-3	11.6668E-3	39.9982E-12	-961.013E-3	26.2134E-3
267.717E-3	6.11254E-12	267.465E-3	267.717E-3	40.7998E-3	39.9704E-12	-950.258E-3	28.0582E-3
255.906E-3	5.89670E-12	255.644E-3	255.906E-3	70.5284E-3	40.0346E-12	-934.749E-3	23.8140E-3
244.094E-3	5.66549E-12	243.868E-3	244.094E-3	-129.983E-3	40.0066E-12	-967.779E-3	26.4698E-3
232.283E-3	5.32130E-12	232.021E-3	232.283E-3	-15.3388E-3	39.9072E-12	-948.881E-3	26.9305E-3
220.472E-3	5.16228E-12	220.183E-3	220.472E-3	-13.5417E-3	40.0284E-12	-955.738E-3	24.9304E-3
208.661E-3	4.94768E-12	208.404E-3	208.661E-3	-106.353E-3	40.0187E-12	-1.01744E+0	25.2878E-3
196.850E-3	4.62319E-12	196.565E-3	196.850E-3	-39.1709E-3	40.0191E-12	-1.02237E+0	24.5189E-3
185.039E-3	4.35828E-12	184.807E-3	185.039E-3	210.002E-3	40.0284E-12	-927.290E-3	27.1739E-3
173.228E-3	4.10245E-12	172.992E-3	173.228E-3	37.2783E-3	40.0291E-12	-962.180E-3	24.7208E-3
161.417E-3	3.85501E-12	161.159E-3	161.417E-3	7.13730E-3	39.9622E-12	-1.00267E+0	25.2970E-3
149.606E-3	3.55963E-12	149.330E-3	149.606E-3	-115.934E-3	39.9627E-12	-1.05066E+0	25.6232E-3
137.795E-3	3.30320E-12	137.535E-3	137.795E-3	98.8795E-3	39.9953E-12	-987.225E-3	28.1223E-3
125.984E-3	3.00742E-12	125.768E-3	125.984E-3	-77.4555E-3	39.9142E-12	-1.02837E+0	28.3467E-3
114.173E-3	2.76795E-12	113.928E-3	114.173E-3	-53.4569E-3	40.1339E-12	-1.02836E+0	25.3806E-3
102.362E-3	2.41211E-12	102.132E-3	102.362E-3	142.769E-3	39.9544E-12	-988.465E-3	22.5615E-3
90.5512E-3	2.13796E-12	90.3243E-3	90.5512E-3	-1.18815E-3	39.9977E-12	-1.02963E+0	28.0169E-3
78.7402E-3	1.86555E-12	78.4939E-3	78.7402E-3	-21.9029E-3	39.9359E-12	-1.03272E+0	28.4087E-3
66.9291E-3	1.58445E-12	66.6288E-3	66.9291E-3	-40.4219E-3	39.9872E-12	-1.02766E+0	27.6796E-3
55.1181E-3	1.27947E-12	54.8523E-3	55.1181E-3	-228.878E-3	39.9637E-12	-1.12580E+0	26.0497E-3
43.3071E-3	980.926E-15	43.0317E-3	43.3071E-3	27.3934E-3	40.0955E-12	-1.07798E+0	25.0670E-3
31.4961E-3	660.028E-15	31.1989E-3	31.4961E-3	-141.168E-3	39.9559E-12	-1.11928E+0	26.4489E-3
19.6850E-3	375.348E-15	19.4016E-3	19.6850E-3	-73.8307E-3	39.9728E-12	-1.10632E+0	28.1866E-3
7.87402E-3	77.0892E-15	7.54826E-3	7.87402E-3	92.7352E-3	40.0091E-12	-1.05608E+0	25.1355E-3
-3.93701E-3	-220.309E-15	-4.33642E-3	-3.93701E-3	-148.257E-3	39.9657E-12	-1.11852E+0	24.9550E-3
-15.7480E-3	-532.382E-15	-16.1278E-3	-15.7480E-3	-115.648E-3	39.9674E-12	-1.13301E+0	24.3320E-3
-27.5591E-3	-846.348E-15	-27.9327E-3	-27.5591E-3	255.086E-6	39.9874E-12	-1.11390E+0	26.5985E-3
-39.3701E-3	-1.12501E-12	-39.7068E-3	-39.3701E-3	796.367E-6	39.9402E-12	-1.11167E+0	27.4435E-3
-51.1811E-3	-1.43757E-12	-51.5590E-3	-51.1811E-3	138.857E-3	40.0653E-12	-1.07820E+0	26.7285E-3
-62.9921E-3	-1.74053E-12	-63.3346E-3	-62.9921E-3	-1.24283E-3	40.0071E-12	-1.11824E+0	27.5857E-3
-74.8032E-3	-1.96562E-12	-75.1804E-3	-74.8032E-3	-86.9654E-3	40.0450E-12	-1.13599E+0	21.1790E-3
-86.6142E-3	-2.10151E-12	-87.0341E-3	-86.6142E-3	-170.754E-3	39.9225E-12	-1.19157E+0	28.7321E-3
-98.4252E-3	-2.21171E-12	-98.8046E-3	-98.4252E-3	-123.195E-3	40.0235E-12	-1.19865E+0	28.3023E-3
-110.236E-3	-2.36236E-12	-110.661E-3	-110.236E-3	3.13216E-3	39.9568E-12	-1.17207E+0	26.0042E-3
-122.047E-3	-2.49382E-12	-122.412E-3	-122.047E-3	-7.30511E-3	39.9941E-12	-1.18205E+0	27.4845E-3
-133.858E-3	-2.63717E-12	-134.260E-3	-133.858E-3	7.04257E-3	39.9536E-12	-1.14120E+0	25.3469E-3
-145.669E-3	-2.83956E-12	-146.058E-3	-145.669E-3	-139.626E-3	40.0125E-12	-1.18181E+0	26.7801E-3
-157.480E-3	-2.97090E-12	-157.827E-3	-157.480E-3	-91.1682E-3	39.9925E-12	-1.19547E+0	27.1999E-3
-169.291E-3	-3.12466E-12	-169.702E-3	-169.291E-3	-86.1648E-3	40.0665E-12	-1.22375E+0	24.6427E-3
-181.102E-3	-3.27930E-12	-181.442E-3	-181.102E-3	46.1139E-3	40.0281E-12	-1.17761E+0	25.6054E-3
-192.913E-3	-3.40364E-12	-193.250E-3	-192.913E-3	99.9444E-3	40.0300E-12	-1.16240E+0	23.5629E-3
-204.724E-3	-3.53501E-12	-205.077E-3	-204.724E-3	-36.1806E-3	39.9630E-12	-1.20397E+0	24.8672E-3
-216.535E-3	-3.68073E-12	-216.882E-3	-216.535E-3	-73.8420E-3	39.9836E-12	-1.24303E+0	25.8695E-3
-228.346E-3	-3.78094E-12	-228.694E-3	-228.346E-3	-172.802E-3	39.9873E-12	-1.32270E+0	24.2190E-3
-240.157E-3	-3.89492E-12	-240.492E-3	-240.157E-3	48.3185E-3	40.0038E-12	-1.25085E+0	23.7442E-3
-251.969E-3	-4.07944E-12	-252.318E-3	-251.969E-3	-86.5160E-3	39.9774E-12	-1.29626E+0	27.5635E-3
-263.780E-3	-4.24240E-12	-264.090E-3	-263.780E-3	-89.4152E-3	40.0283E-12	-1.31161E+0	26.2748E-3
-275.591E-3	-4.44004E-12	-275.887E-3	-275.591E-3	28.3402E-3	40.0277E-12	-1.28622E+0	26.1224E-3
-287.402E-3	-4.53870E-12	-287.733E-3	-287.402E-3	-191.761E-3	40.0343E-12	-1.36267E+0	23.3281E-3
-299.213E-3	-4.72544E-12	-299.528E-3	-299.213E-3	80.6310E-3	39.9926E-12	-1.31992E+0	29.0288E-3
-311.024E-3	-4.90145E-12	-311.356E-3	-311.024E-3	169.420E-3	40.0656E-12	-1.26834E+0	27.6372E-3
-322.835E-3	-4.95462E-12	-323.155E-3	-322.835E-3	-200.006E-3	40.0259E-12	-1.38251E+0	25.4636E-3
-334.646E-3	-5.08152E-12	-334.930E-3	-334.646E-3	-7.81548E-3	39.9837E-12	-1.34076E+0	28.0725E-3
-346.457E-3	-5.17773E-12	-346.754E-3	-346.457E-3	65.0259E-3	39.9877E-12	-1.30755E+0	29.8800E-3
-358.268E-3	-5.27084E-12	-358.591E-3	-358.268E-3	-212.095E-3	40.0043E-12	-1.41730E+0	24.6687E-3
-370.079E-3	-5.45485E-12	-370.391E-3	-370.079E-3	-59.7989E-3	39.9863E-12	-1.41057E+0	26.9960E-3
-381.890E-3	-5.69510E-12	-382.157E-3	-381.890E-3	28.7204E-3	40.0492E-12	-1.38110E+0	25.2121E-3
-393.701E-3	-5.67503E-12	-394.030E-3	-393.701E-3	-154.133E-3	39.9682E-12	-1.44621E+0	25.7959E-3
-405.512E-3	-5.82086E-12	-405.840E-3	-405.512E-3	174.532E-3	39.9997E-12	-1.34540E+0	27.6777E-3
-417.323E-3	-6.00854E-12	-417.630E-3	-417.323E-3	-177.463E-3	39.9976E-12	-1.45468E+0	26.4022E-3
-429.134E-3	-6.14457E-12	-429.439E-3	-429.134E-3	-84.5181E-3	39.9514E-12	-1.46300E+0	28.1728E-3
-440.945E-3	-6.33602E-12	-441.238E-3	-440.945E-3	-37.9386E-3	40.0597E-12	-1.42872E+0	24.0974E-3
-452.756E-3	-6.56595E-12	-453.043E-3	-452.756E-3	6.65250E-3	39.9524E-12	-1.43988E+0	28.3224E-3
-464.567E-3	-6.86201E-12	-464.877E-3	-464.567E-3	-31.3099E-3	39.9963E-12	-1.43695E+0	26.9793E-3
-476.378E-3	-7.07545E-12	-476.699E-3	-476.378E-3	41.1955E-3	40.0210E-12	-1.43198E+0	25.4578E-3
-488.189E-3	-7.31104E-12	-488.429E-3	-488.189E-3	-118.935E-3	39.9394E-12	-1.49314E+0	26.8041E-3
-500.000E-3	-7.64217E-12	-500.262E-3	-500.000E-3	-39.9237E-3	40.0268E-12	-1.50113E+0	27.7474E-3
